MusicsSelect,musics,trials.thisRepN,trials.thisTrialN,trials.thisN,trials.thisIndex,blocks.thisRepN,blocks.thisTrialN,blocks.thisN,blocks.thisIndex,trialsMusics.thisRepN,trialsMusics.thisTrialN,trialsMusics.thisN,trialsMusics.thisIndex,WelcomeMessage.started,Baseline1.started,Noise.started,Baseline1.stopped,Baseline2.started,MusicExcerpt.started,ISI.started,MusicExcerpt.stopped,ISI.stopped,Baseline2.stopped,Noise.stopped,Baseline3.started,GoodbyeText.started,Baseline3.stopped,GoodbyeText.stopped,participant,session,trigger,date,expName,psychopyVersion,frameRate,
MusicListQ1.csv,music\Q1\MT0007057303.wav,0,0,0,0,0,0,0,0,0,0,0,0,37.99484279999979,52.36265309999999,64.31916065999977,64.36906409999938,76.32505690000016,88.37017167999984,99.82035899999937,99.87574899999981,100.33676070000001,,,,,,,14,3,True,2023-04-03_13h26.06.750,BrainplaybackQuadrants,2022.2.4,59.70199153909896,
MusicListQ1.csv,music\Q1\MT0009208842.wav,0,0,0,0,0,0,0,0,0,1,1,2,,,,,,100.33747662000025,111.82081219999964,111.84552739999981,112.33848289999969,,,,,,,14,3,True,2023-04-03_13h26.06.750,BrainplaybackQuadrants,2022.2.4,59.70199153909896,
MusicListQ1.csv,music\Q1\MT0005083488.wav,0,0,0,0,0,0,0,0,0,2,2,1,,,,,,112.33766541999995,123.81874890000017,123.85483990000012,124.32669669999996,,,,,,,14,3,True,2023-04-03_13h26.06.750,BrainplaybackQuadrants,2022.2.4,59.70199153909896,
MusicListQ1.csv,,0,0,0,0,0,0,0,0,,,,,,,,,,,,,,,,,,,,14,3,True,2023-04-03_13h26.06.750,BrainplaybackQuadrants,2022.2.4,59.70199153909896,
MusicListQ4.csv,music\Q4\MT0010203716.wav,0,0,0,0,0,1,1,3,0,0,0,2,,124.32669669999996,136.31982026000006,136.3364561999997,148.32449319999978,160.37277597999966,171.8204829999995,171.8932888999998,172.3425600999999,,,,,,,14,3,True,2023-04-03_13h26.06.750,BrainplaybackQuadrants,2022.2.4,59.70199153909896,
MusicListQ4.csv,music\Q4\MT0007119529.wav,0,0,0,0,0,1,1,3,0,1,1,0,,,,,,172.35411437999957,183.82094789999974,183.86471660000007,184.33625819999997,,,,,,,14,3,True,2023-04-03_13h26.06.750,BrainplaybackQuadrants,2022.2.4,59.70199153909896,
MusicListQ4.csv,music\Q4\MT0005550441.wav,0,0,0,0,0,1,1,3,0,2,2,1,,,,,,184.3378051199996,195.82140040000013,195.8449654999995,196.33237519999966,,,,,,,14,3,True,2023-04-03_13h26.06.750,BrainplaybackQuadrants,2022.2.4,59.70199153909896,
MusicListQ4.csv,,0,0,0,0,0,1,1,3,,,,,,,,,,,,,,,,,,,,14,3,True,2023-04-03_13h26.06.750,BrainplaybackQuadrants,2022.2.4,59.70199153909896,
MusicListQ3.csv,music\Q3\MT0007410187.wav,0,0,0,0,0,2,2,2,0,0,0,2,,196.33237519999966,208.32439775999993,208.34102530000018,220.3369662999994,232.3736397799996,243.82321369999954,243.87471939999978,244.34521719999975,,,,,,,14,3,True,2023-04-03_13h26.06.750,BrainplaybackQuadrants,2022.2.4,59.70199153909896,
MusicListQ3.csv,music\Q3\MT0004131058.wav,0,0,0,0,0,2,2,2,0,1,1,1,,,,,,244.35676707999957,255.8260993999993,255.86493989999963,256.34142470000006,,,,,,,14,3,True,2023-04-03_13h26.06.750,BrainplaybackQuadrants,2022.2.4,59.70199153909896,
MusicListQ3.csv,music\Q3\MT0005262725.wav,0,0,0,0,0,2,2,2,0,2,2,0,,,,,,256.34294922000004,267.81013769999936,267.8441925999996,268.3234775000001,,,,,,,14,3,True,2023-04-03_13h26.06.750,BrainplaybackQuadrants,2022.2.4,59.70199153909896,
MusicListQ3.csv,,0,0,0,0,0,2,2,2,,,,,,,,,,,,,,,,,,,,14,3,True,2023-04-03_13h26.06.750,BrainplaybackQuadrants,2022.2.4,59.70199153909896,
MusicListQ2.csv,music\Q2\MT0008208983.wav,0,0,0,0,0,3,3,1,0,0,0,2,,268.3234775000001,280.31041625999967,280.3273081999996,292.31531039999936,304.3598841799996,315.8100627999993,315.8654214999997,316.3574886999995,304.3618884999996,,,,,,14,3,True,2023-04-03_13h26.06.750,BrainplaybackQuadrants,2022.2.4,59.70199153909896,
MusicListQ2.csv,music\Q2\MT0006806145.wav,0,0,0,0,0,3,3,1,0,1,1,0,,,,,,316.36041403999985,327.8104790999996,327.8655437999996,328.34643249999954,,,,,,,14,3,True,2023-04-03_13h26.06.750,BrainplaybackQuadrants,2022.2.4,59.70199153909896,
MusicListQ2.csv,music\Q2\MT0005409948.wav,0,0,0,0,0,3,3,1,0,2,2,1,,,,,,328.36069313999957,339.8129132999993,339.8651484000002,340.3,,,,,,,14,3,True,2023-04-03_13h26.06.750,BrainplaybackQuadrants,2022.2.4,59.70199153909896,
MusicListQ2.csv,,0,0,0,0,0,3,3,1,,,,,,,,,,,,,,,,,,,,14,3,True,2023-04-03_13h26.06.750,BrainplaybackQuadrants,2022.2.4,59.70199153909896,
,,0,0,0,0,,,,,,,,,,,,,,,,,,,,,,,,14,3,True,2023-04-03_13h26.06.750,BrainplaybackQuadrants,2022.2.4,59.70199153909896,
MusicListQ2.csv,music\Q2\MT0013822237.wav,1,0,1,0,0,0,0,1,0,0,0,2,,340.37555209999937,352.3614839599999,352.3780831999993,364.36612349999996,376.4292410399999,387.86263679999956,387.93553539999994,388.39902579999944,,,,,,,14,3,True,2023-04-03_13h26.06.750,BrainplaybackQuadrants,2022.2.4,59.70199153909896,
MusicListQ2.csv,music\Q2\MT0012001409.wav,1,0,1,0,0,0,0,1,0,1,1,1,,,,,,388.4130302399995,399.86309900000015,399.9155364999997,400.40501439999935,,,,,,,14,3,True,2023-04-03_13h26.06.750,BrainplaybackQuadrants,2022.2.4,59.70199153909896,
MusicListQ2.csv,music\Q2\MT0012658636.wav,1,0,1,0,0,0,0,1,0,2,2,0,,,,,,400.4134489399999,411.86353019999933,411.91561459999957,412.4114136999997,,,,,,,14,3,True,2023-04-03_13h26.06.750,BrainplaybackQuadrants,2022.2.4,59.70199153909896,
MusicListQ2.csv,,1,0,1,0,0,0,0,1,,,,,,,,,,,,,,,,,,,,14,3,True,2023-04-03_13h26.06.750,BrainplaybackQuadrants,2022.2.4,59.70199153909896,
MusicListQ1.csv,music\Q1\MT0013101577.wav,1,0,1,0,0,1,1,0,0,0,0,1,,412.4114136999997,424.3640488599998,424.41397830000005,436.36670460000005,448.4318385399998,459.8669222999997,459.9460067,460.7,,436.36670460000005,,,,,14,3,True,2023-04-03_13h26.06.750,BrainplaybackQuadrants,2022.2.4,59.70199153909896,
MusicListQ1.csv,music\Q1\MT0013621344.wav,1,0,1,0,0,1,1,0,0,1,1,0,,,,,,460.4004437199999,471.8657072999995,471.9,472.39620060000016,,,,,,,14,3,True,2023-04-03_13h26.06.750,BrainplaybackQuadrants,2022.2.4,59.70199153909896,
MusicListQ1.csv,music\Q1\MT0015028144.wav,1,0,1,0,0,1,1,0,0,2,2,2,,,,,,472.3992914800003,483.8661360999995,483.90574359999937,484.41404389999934,,,,,,,14,3,True,2023-04-03_13h26.06.750,BrainplaybackQuadrants,2022.2.4,59.70199153909896,
MusicListQ1.csv,,1,0,1,0,0,1,1,0,,,,,,,,,,,,,,,,,,,,14,3,True,2023-04-03_13h26.06.750,BrainplaybackQuadrants,2022.2.4,59.70199153909896,
MusicListQ4.csv,music\Q4\MT0016932218.wav,1,0,1,0,0,2,2,3,0,0,0,2,,484.41404389999934,496.3666469599997,496.4165684999998,508.37638419999985,520.4193555799994,531.8678571999999,531.9459221999996,532.4118619000001,,,,,,,14,3,True,2023-04-03_13h26.06.750,BrainplaybackQuadrants,2022.2.4,59.70199153909896,
MusicListQ4.csv,music\Q4\MT0013955066.wav,1,0,1,0,0,2,2,3,0,1,1,1,,,,,,532.4182448400003,543.8683022999994,543.9258070999995,544.3880549999994,,,,,,,14,3,True,2023-04-03_13h26.06.750,BrainplaybackQuadrants,2022.2.4,59.70199153909896,
MusicListQ4.csv,music\Q4\MT0014584319.wav,1,0,1,0,0,2,2,3,0,2,2,0,,,,,,544.4013157800001,555.8687364999996,555.9062672999999,556.4209234999998,,,,,,,14,3,True,2023-04-03_13h26.06.750,BrainplaybackQuadrants,2022.2.4,59.70199153909896,
MusicListQ4.csv,,1,0,1,0,0,2,2,3,,,,,,,,,,,,,,,,,,,,14,3,True,2023-04-03_13h26.06.750,BrainplaybackQuadrants,2022.2.4,59.70199153909896,
MusicListQ3.csv,music\Q3\MT0011391187.wav,1,0,1,0,0,3,3,2,0,0,0,1,,556.4209234999998,568.3692425599996,568.4358271000001,580.3748768999994,592.4370270400001,603.8704379000001,603.9465474999997,604.3963969999995,,,,,,,14,3,True,2023-04-03_13h26.06.750,BrainplaybackQuadrants,2022.2.4,59.70199153909896,
MusicListQ3.csv,music\Q3\MT0011667212.wav,1,0,1,0,0,3,3,2,0,1,1,0,,,,,,604.4040284799995,615.8709067,615.9051137999995,616.3921935999997,,,,,,,14,3,True,2023-04-03_13h26.06.750,BrainplaybackQuadrants,2022.2.4,59.70199153909896,
MusicListQ3.csv,music\Q3\MT0012634038.wav,1,0,1,0,0,3,3,2,0,2,2,2,,,,,,616.4038220799995,627.8712996999993,627.9062598,628.4980263999996,,,,,,,14,3,True,2023-04-03_13h26.06.750,BrainplaybackQuadrants,2022.2.4,59.70199153909896,
MusicListQ3.csv,,1,0,1,0,0,3,3,2,,,,,,,,,,,,,,,,,,,,14,3,True,2023-04-03_13h26.06.750,BrainplaybackQuadrants,2022.2.4,59.70199153909896,
,,1,0,1,0,,,,,,,,,,,,,,,,,,,,,,,,14,3,True,2023-04-03_13h26.06.750,BrainplaybackQuadrants,2022.2.4,59.70199153909896,
,,,,,,,,,,,,,,,,,,,,,,,,,628.4980263999996,652.4554487999994,652.5054792000001,653.4555120999994,,,,,,,,
