MusicsSelect,musics,trials.thisRepN,trials.thisTrialN,trials.thisN,trials.thisIndex,blocks.thisRepN,blocks.thisTrialN,blocks.thisN,blocks.thisIndex,trialsMusics.thisRepN,trialsMusics.thisTrialN,trialsMusics.thisN,trialsMusics.thisIndex,WelcomeMessage.started,WelcomeMessage.stopped,Baseline1.started,Noise.started,Baseline1.stopped,Baseline2.started,MusicExcerpt.started,ISI.started,MusicExcerpt.stopped,ISI.stopped,Noise.stopped,Baseline2.stopped,Baseline3.started,GoodbyeText.started,Baseline3.stopped,GoodbyeText.stopped,participant,session,trigger,date,expName,psychopyVersion,frameRate,
MusicListQ1.csv,music\Q1\MT0001680969.wav,0,0,0,0,0,0,0,0,0,0,0,0,45.361318799999935,58.90190219999931,58.90190219999931,70.85658670000048,70.90649099999973,82.86250629999995,94.90749969999924,106.35786109999935,106.42084380000051,106.87181779999992,,,,,,,05,1,True,2023-01-26_18h02.34.260,BrainplaybackQuadrants,2022.2.4,59.86597206154524,
MusicListQ1.csv,music\Q1\MT0032405040.wav,0,0,0,0,0,0,0,0,0,1,1,2,,,,,,,106.87462009999908,118.35830569999962,118.38167749999957,118.87352610000016,,,,,,,05,1,True,2023-01-26_18h02.34.260,BrainplaybackQuadrants,2022.2.4,59.86597206154524,
MusicListQ1.csv,music\Q1\MT0003669917.wav,0,0,0,0,0,0,0,0,0,2,2,1,,,,,,,118.8750859000007,130.35880779999934,130.38261649999913,130.87709019999966,,,,,,,05,1,True,2023-01-26_18h02.34.260,BrainplaybackQuadrants,2022.2.4,59.86597206154524,
MusicListQ1.csv,,0,0,0,0,0,0,0,0,,,,,,,,,,,,,,,,,,,,,05,1,True,2023-01-26_18h02.34.260,BrainplaybackQuadrants,2022.2.4,59.86597206154524,
MusicListQ3.csv,music\Q3\MT0003053135.wav,0,0,0,0,0,1,1,2,0,0,0,1,,,130.87709019999966,142.85931369999963,142.89264899999944,154.86141879999923,167.0102966000006,178.36057149999942,178.5116906000003,178.8816650000008,154.86141879999923,,,,,,05,1,True,2023-01-26_18h02.34.260,BrainplaybackQuadrants,2022.2.4,59.86597206154524,
MusicListQ3.csv,music\Q3\MT0001284801.wav,0,0,0,0,0,1,1,2,0,1,1,0,,,,,,,178.89402030000056,190.36104859999978,190.40258320000066,190.88063800000054,,,,,,,05,1,True,2023-01-26_18h02.34.260,BrainplaybackQuadrants,2022.2.4,59.86597206154524,
MusicListQ3.csv,music\Q3\MT0031951901.wav,0,0,0,0,0,1,1,2,0,2,2,2,,,,,,,190.8945489999991,202.3615133000003,202.4021589999993,202.88404179999998,,,,,,,05,1,True,2023-01-26_18h02.34.260,BrainplaybackQuadrants,2022.2.4,59.86597206154524,
MusicListQ3.csv,,0,0,0,0,0,1,1,2,,,,,,,,,,,,,,,,,,,,,05,1,True,2023-01-26_18h02.34.260,BrainplaybackQuadrants,2022.2.4,59.86597206154524,
MusicListQ4.csv,music\Q4\MT0033461826.wav,0,0,0,0,0,2,2,3,0,0,0,2,,,202.88404179999998,214.86207309999992,214.89538039999934,226.8717016999999,238.9130336000002,250.3633905000006,250.41326010000012,250.88519649999944,,,,,,,05,1,True,2023-01-26_18h02.34.260,BrainplaybackQuadrants,2022.2.4,59.86597206154524,
MusicListQ4.csv,music\Q4\MT0003778826.wav,0,0,0,0,0,2,2,3,0,1,1,1,,,,,,,250.89668910000037,262.3637834000001,262.40212000000065,262.8866839000002,,,,,,,05,1,True,2023-01-26_18h02.34.260,BrainplaybackQuadrants,2022.2.4,59.86597206154524,
MusicListQ4.csv,music\Q4\MT0000922312.wav,0,0,0,0,0,2,2,3,0,2,2,0,,,,,,,262.8973267000005,274.3642904999997,274.4022695999993,274.8839845000002,,,,,,,05,1,True,2023-01-26_18h02.34.260,BrainplaybackQuadrants,2022.2.4,59.86597206154524,
MusicListQ4.csv,,0,0,0,0,0,2,2,3,,,,,,,,,,,,,,,,,,,,,05,1,True,2023-01-26_18h02.34.260,BrainplaybackQuadrants,2022.2.4,59.86597206154524,
MusicListQ2.csv,music\Q2\MT0033097471.wav,0,0,0,0,0,3,3,1,0,0,0,2,,,274.8839845000002,286.864805,286.8980035000004,298.84858449999956,310.88239599999946,322.3494413999997,322.3925366000003,322.8715166999991,,310.87409750000006,,,,,05,1,True,2023-01-26_18h02.34.260,BrainplaybackQuadrants,2022.2.4,59.86597206154524,
MusicListQ2.csv,music\Q2\MT0001962373.wav,0,0,0,0,0,3,3,1,0,1,1,0,,,,,,,322.88284869999956,334.34992209999837,334.39246769999954,334.86759080000047,,,,,,,05,1,True,2023-01-26_18h02.34.260,BrainplaybackQuadrants,2022.2.4,59.86597206154524,
MusicListQ2.csv,music\Q2\MT0004447086.wav,0,0,0,0,0,3,3,1,0,2,2,1,,,,,,,334.8666250000002,346.3504036000013,346.37115130000166,346.9108014000012,,,,,,,05,1,True,2023-01-26_18h02.34.260,BrainplaybackQuadrants,2022.2.4,59.86597206154524,
MusicListQ2.csv,,0,0,0,0,0,3,3,1,,,,,,,,,,,,,,,,,,,,,05,1,True,2023-01-26_18h02.34.260,BrainplaybackQuadrants,2022.2.4,59.86597206154524,
,,0,0,0,0,,,,,,,,,,,,,,,,,,,,,,,,,05,1,True,2023-01-26_18h02.34.260,BrainplaybackQuadrants,2022.2.4,59.86597206154524,
MusicListQ4.csv,music\Q4\MT0031886830.wav,1,0,1,0,0,0,0,3,0,0,0,2,,,346.9108014000012,358.9008648999996,358.9175276999995,370.90231610000046,382.9352638000004,394.40227120000054,394.4435717999986,394.9248084999999,370.90231610000046,382.9255970999984,,,,,05,1,True,2023-01-26_18h02.34.260,BrainplaybackQuadrants,2022.2.4,59.86597206154524,
MusicListQ4.csv,music\Q4\MT0001394087.wav,1,0,1,0,0,0,0,3,0,1,1,1,,,,,,,394.9357092000013,406.402784599999,406.44326400000136,406.9279056000014,,,,,,,05,1,True,2023-01-26_18h02.34.260,BrainplaybackQuadrants,2022.2.4,59.86597206154524,
MusicListQ4.csv,music\Q4\MT0003454112.wav,1,0,1,0,0,0,0,3,0,2,2,0,,,,,,,406.9361827999987,418.40326659999846,418.4367209000011,418.93259979999857,,,,,,,05,1,True,2023-01-26_18h02.34.260,BrainplaybackQuadrants,2022.2.4,59.86597206154524,
MusicListQ4.csv,,1,0,1,0,0,0,0,3,,,,,,,,,,,,,,,,,,,,,05,1,True,2023-01-26_18h02.34.260,BrainplaybackQuadrants,2022.2.4,59.86597206154524,
MusicListQ1.csv,music\Q1\MT0031922089.wav,1,0,1,0,0,1,1,0,0,0,0,2,,,418.93259979999857,430.9036487999991,430.93706250000105,442.9041219999999,454.9378850000016,466.40505349999876,466.443196799999,466.9205919999986,442.9041219999999,454.9241304999996,,,,,05,1,True,2023-01-26_18h02.34.260,BrainplaybackQuadrants,2022.2.4,59.86597206154524,
MusicListQ1.csv,music\Q1\MT0002033629.wav,1,0,1,0,0,1,1,0,0,1,1,1,,,,,,,466.9216500999988,478.40549380000084,478.4345721999998,478.92102180000074,,,,,,,05,1,True,2023-01-26_18h02.34.260,BrainplaybackQuadrants,2022.2.4,59.86597206154524,
MusicListQ1.csv,music\Q1\MT0003594672.wav,1,0,1,0,0,1,1,0,0,2,2,0,,,,,,,478.92225800000017,490.40596110000115,490.4321420999986,490.93769919999977,,,,,,,05,1,True,2023-01-26_18h02.34.260,BrainplaybackQuadrants,2022.2.4,59.86597206154524,
MusicListQ1.csv,,1,0,1,0,0,1,1,0,,,,,,,,,,,,,,,,,,,,,05,1,True,2023-01-26_18h02.34.260,BrainplaybackQuadrants,2022.2.4,59.86597206154524,
MusicListQ2.csv,music\Q2\MT0030214520.wav,1,0,1,0,0,2,2,1,0,0,0,2,,,490.93769919999977,502.9064245000016,502.93975209999917,514.913187099999,526.9573633999993,538.4077509999988,538.4633462999991,538.9278864000007,,,,,,,05,1,True,2023-01-26_18h02.34.260,BrainplaybackQuadrants,2022.2.4,59.86597206154524,
MusicListQ2.csv,music\Q2\MT0004293364.wav,1,0,1,0,0,2,2,1,0,1,1,0,,,,,,,538.9411648000008,550.4082157000012,550.4538156000017,550.9357458999984,,,,,,,05,1,True,2023-01-26_18h02.34.260,BrainplaybackQuadrants,2022.2.4,59.86597206154524,
MusicListQ2.csv,music\Q2\MT0002385077.wav,1,0,1,0,0,2,2,1,0,2,2,1,,,,,,,550.9415377999998,562.4086294000008,562.4441169999991,562.9439251000003,,,,,,,05,1,True,2023-01-26_18h02.34.260,BrainplaybackQuadrants,2022.2.4,59.86597206154524,
MusicListQ2.csv,,1,0,1,0,0,2,2,1,,,,,,,,,,,,,,,,,,,,,05,1,True,2023-01-26_18h02.34.260,BrainplaybackQuadrants,2022.2.4,59.86597206154524,
MusicListQ3.csv,music\Q3\MT0030252676.wav,1,0,1,0,0,3,3,2,0,0,0,2,,,562.9439251000003,574.9090975000006,574.9590933,586.9133805999991,598.9601419999984,610.4103689000003,610.4637876000015,610.9306507000001,,,,,,,05,1,True,2023-01-26_18h02.34.260,BrainplaybackQuadrants,2022.2.4,59.86597206154524,
MusicListQ3.csv,music\Q3\MT0003037596.wav,1,0,1,0,0,3,3,2,0,1,1,0,,,,,,,610.9437624000005,622.4110537999986,622.4441363000005,622.9313298999987,,,,,,,05,1,True,2023-01-26_18h02.34.260,BrainplaybackQuadrants,2022.2.4,59.86597206154524,
MusicListQ3.csv,music\Q3\MT0001533920.wav,1,0,1,0,0,3,3,2,0,2,2,1,,,,,,,622.9441568999995,634.3946071999999,634.4450639999995,635.0178076000011,,,,,,,05,1,True,2023-01-26_18h02.34.260,BrainplaybackQuadrants,2022.2.4,59.86597206154524,
MusicListQ3.csv,,1,0,1,0,0,3,3,2,,,,,,,,,,,,,,,,,,,,,05,1,True,2023-01-26_18h02.34.260,BrainplaybackQuadrants,2022.2.4,59.86597206154524,
,,1,0,1,0,,,,,,,,,,,,,,,,,,,,,,,,,05,1,True,2023-01-26_18h02.34.260,BrainplaybackQuadrants,2022.2.4,59.86597206154524,
,,,,,,,,,,,,,,,,,,,,,,,,,,635.0178076000011,658.9788866000017,659.0288847999982,659.9787939000016,,,,,,,,
