MusicsSelect,musics,trials.thisRepN,trials.thisTrialN,trials.thisN,trials.thisIndex,blocks.thisRepN,blocks.thisTrialN,blocks.thisN,blocks.thisIndex,trialsMusics.thisRepN,trialsMusics.thisTrialN,trialsMusics.thisN,trialsMusics.thisIndex,WelcomeMessage.started,WelcomeMessage.stopped,Baseline1.started,Noise.started,Baseline1.stopped,Baseline2.started,MusicExcerpt.started,ISI.started,MusicExcerpt.stopped,ISI.stopped,Baseline2.stopped,Noise.stopped,Baseline3.started,GoodbyeText.started,Baseline3.stopped,GoodbyeText.stopped,participant,session,trigger,date,expName,psychopyVersion,frameRate,
MusicListQ2.csv,music\Q2\MT0011348776.wav,0,0,0,0,0,0,0,1,0,0,0,0,11.313298300000497,26.643148900000597,26.643148900000597,38.59005503000007,38.65623670000059,50.59453250000024,62.64299438999969,74.09348520000003,74.15489119999984,74.61609560000034,,,,,,,06,3,True,2023-01-19_18h17.41.998,BrainplaybackQuadrants,2022.2.4,59.967461655372944,
MusicListQ2.csv,music\Q2\MT0011145388.wav,0,0,0,0,0,0,0,1,0,1,1,1,,,,,,,74.62683418999985,86.0944040000004,86.13457280000057,86.6159348000001,,,,,,,06,3,True,2023-01-19_18h17.41.998,BrainplaybackQuadrants,2022.2.4,59.967461655372944,
MusicListQ2.csv,music\Q2\MT0010490157.wav,0,0,0,0,0,0,0,1,0,2,2,2,,,,,,,86.62771958999964,98.0947956,98.13408549999986,98.61087450000014,,,,,,,06,3,True,2023-01-19_18h17.41.998,BrainplaybackQuadrants,2022.2.4,59.967461655372944,
MusicListQ2.csv,,0,0,0,0,0,0,0,1,,,,,,,,,,,,,,,,,,,,,06,3,True,2023-01-19_18h17.41.998,BrainplaybackQuadrants,2022.2.4,59.967461655372944,
MusicListQ3.csv,music\Q3\MT0010739708.wav,0,0,0,0,0,1,1,2,0,0,0,0,,,98.61087450000014,110.59209383000034,110.62543030000052,122.59451489999992,134.64292599,146.0933640000003,146.14351110000007,146.61505230000057,,,,,,,06,3,True,2023-01-19_18h17.41.998,BrainplaybackQuadrants,2022.2.4,59.967461655372944,
MusicListQ3.csv,music\Q3\MT0009437817.wav,0,0,0,0,0,1,1,2,0,1,1,2,,,,,,,146.62721969000032,158.0937759999997,158.13336909999998,158.6108806000002,,,,,,,06,3,True,2023-01-19_18h17.41.998,BrainplaybackQuadrants,2022.2.4,59.967461655372944,
MusicListQ3.csv,music\Q3\MT0010375510.wav,0,0,0,0,0,1,1,2,0,2,2,1,,,,,,,158.61047795999968,170.0948642000003,170.11374330000035,170.61279680000007,,,,,,,06,3,True,2023-01-19_18h17.41.998,BrainplaybackQuadrants,2022.2.4,59.967461655372944,
MusicListQ3.csv,,0,0,0,0,0,1,1,2,,,,,,,,,,,,,,,,,,,,,06,3,True,2023-01-19_18h17.41.998,BrainplaybackQuadrants,2022.2.4,59.967461655372944,
MusicListQ1.csv,music\Q1\MT0011957429.wav,0,0,0,0,0,2,2,0,0,0,0,1,,,170.61279680000007,182.59465743000038,182.62865609999972,194.60293890000048,206.64550198999987,218.0965441999997,218.14710999999988,218.61015190000035,,,,,,,06,3,True,2023-01-19_18h17.41.998,BrainplaybackQuadrants,2022.2.4,59.967461655372944,
MusicListQ1.csv,music\Q1\MT0011786799.wav,0,0,0,0,0,2,2,0,0,1,1,2,,,,,,,218.61260516000004,230.09690610000052,230.12449949999973,230.60989640000025,,,,,,,06,3,True,2023-01-19_18h17.41.998,BrainplaybackQuadrants,2022.2.4,59.967461655372944,
MusicListQ1.csv,music\Q1\MT0012041920.wav,0,0,0,0,0,2,2,0,0,2,2,0,,,,,,,230.61303016000022,242.09731180000017,242.1138105,242.61644669999987,,,,,,,06,3,True,2023-01-19_18h17.41.998,BrainplaybackQuadrants,2022.2.4,59.967461655372944,
MusicListQ1.csv,,0,0,0,0,0,2,2,0,,,,,,,,,,,,,,,,,,,,,06,3,True,2023-01-19_18h17.41.998,BrainplaybackQuadrants,2022.2.4,59.967461655372944,
MusicListQ4.csv,music\Q4\MT0012862507.wav,0,0,0,0,0,3,3,3,0,0,0,1,,,242.61644669999987,254.59781253000057,254.6311857999999,266.6031684999998,278.64867479000026,290.09854300000006,290.1530837,290.61783710000054,,,,,,,06,3,True,2023-01-19_18h17.41.998,BrainplaybackQuadrants,2022.2.4,59.967461655372944,
MusicListQ4.csv,music\Q4\MT0012941049.wav,0,0,0,0,0,3,3,3,0,1,1,0,,,,,,,290.63252139000036,302.09894410000015,302.1748684000004,302.61645560000034,,,,,,,06,3,True,2023-01-19_18h17.41.998,BrainplaybackQuadrants,2022.2.4,59.967461655372944,
MusicListQ4.csv,music\Q4\MT0012151268.wav,0,0,0,0,0,3,3,3,0,2,2,2,,,,,,,302.6156362600001,314.09993570000006,314.12345689999984,314.6563506000002,,,,,,,06,3,True,2023-01-19_18h17.41.998,BrainplaybackQuadrants,2022.2.4,59.967461655372944,
MusicListQ4.csv,,0,0,0,0,0,3,3,3,,,,,,,,,,,,,,,,,,,,,06,3,True,2023-01-19_18h17.41.998,BrainplaybackQuadrants,2022.2.4,59.967461655372944,
,,0,0,0,0,,,,,,,,,,,,,,,,,,,,,,,,,06,3,True,2023-01-19_18h17.41.998,BrainplaybackQuadrants,2022.2.4,59.967461655372944,
MusicListQ4.csv,music\Q4\MT0010818060.wav,1,0,1,0,0,0,0,3,0,0,0,1,,,314.6563506000002,326.64982973000025,326.66704649999974,338.6530702,350.68676888999966,362.1538754000003,362.1950130000005,362.6764407999999,350.67608819999987,,,,,,06,3,True,2023-01-19_18h17.41.998,BrainplaybackQuadrants,2022.2.4,59.967461655372944,
MusicListQ4.csv,music\Q4\MT0030494794.wav,1,0,1,0,0,0,0,3,0,1,1,2,,,,,,,362.6872543900003,374.15436620000037,374.1943890000002,374.67655939999986,,,,,,,06,3,True,2023-01-19_18h17.41.998,BrainplaybackQuadrants,2022.2.4,59.967461655372944,
MusicListQ4.csv,music\Q4\MT0001624303.wav,1,0,1,0,0,0,0,3,0,2,2,0,,,,,,,374.68730659000033,386.1547456999997,386.19451300000037,386.6835952000001,,,,,,,06,3,True,2023-01-19_18h17.41.998,BrainplaybackQuadrants,2022.2.4,59.967461655372944,
MusicListQ4.csv,,1,0,1,0,0,0,0,3,,,,,,,,,,,,,,,,,,,,,06,3,True,2023-01-19_18h17.41.998,BrainplaybackQuadrants,2022.2.4,59.967461655372944,
MusicListQ1.csv,music\Q1\MT0029065626.wav,1,0,1,0,0,1,1,0,0,0,0,2,,,386.6835952000001,398.6529677300003,398.6865254000004,410.6624118,422.68661046,434.15370470000016,434.19356789999983,434.66757359999974,,,,,,,06,3,True,2023-01-19_18h17.41.998,BrainplaybackQuadrants,2022.2.4,59.967461655372944,
MusicListQ1.csv,music\Q1\MT0002262181.wav,1,0,1,0,0,1,1,0,0,1,1,0,,,,,,,434.67092725999976,446.1541167000005,446.1731842999998,446.6686010000003,,,,,,,06,3,True,2023-01-19_18h17.41.998,BrainplaybackQuadrants,2022.2.4,59.967461655372944,
MusicListQ1.csv,music\Q1\MT0009845276.wav,1,0,1,0,0,1,1,0,0,2,2,1,,,,,,,446.6713955600004,458.1545100000003,458.1732944000005,458.6856343999998,,,,,,,06,3,True,2023-01-19_18h17.41.998,BrainplaybackQuadrants,2022.2.4,59.967461655372944,
MusicListQ1.csv,,1,0,1,0,0,1,1,0,,,,,,,,,,,,,,,,,,,,,06,3,True,2023-01-19_18h17.41.998,BrainplaybackQuadrants,2022.2.4,59.967461655372944,
MusicListQ3.csv,music\Q3\MT0007610380.wav,1,0,1,0,0,2,2,2,0,0,0,1,,,458.6856343999998,470.6555356300003,470.68887150000046,482.6644384000001,494.70583149,506.1562444000001,506.20626470000025,506.67849230000047,,,,,,,06,3,True,2023-01-19_18h17.41.998,BrainplaybackQuadrants,2022.2.4,59.967461655372944,
MusicListQ3.csv,music\Q3\MT0026905937.wav,1,0,1,0,0,2,2,2,0,1,1,2,,,,,,,506.6901705900004,518.1572526999998,518.1932271000005,518.6758891,,,,,,,06,3,True,2023-01-19_18h17.41.998,BrainplaybackQuadrants,2022.2.4,59.967461655372944,
MusicListQ3.csv,music\Q3\MT0001871732.wav,1,0,1,0,0,2,2,2,0,2,2,0,,,,,,,518.6900480899998,530.1571947000002,530.1937586000004,530.6909971000005,,,,,,,06,3,True,2023-01-19_18h17.41.998,BrainplaybackQuadrants,2022.2.4,59.967461655372944,
MusicListQ3.csv,,1,0,1,0,0,2,2,2,,,,,,,,,,,,,,,,,,,,,06,3,True,2023-01-19_18h17.41.998,BrainplaybackQuadrants,2022.2.4,59.967461655372944,
MusicListQ2.csv,music\Q2\MT0028750297.wav,1,0,1,0,0,3,3,1,0,0,0,2,,,530.6909971000005,542.6436838300003,542.6933153,554.6441028999998,566.6775693900003,578.1446627000005,578.1846547000005,578.6639157999998,566.6774771,554.6441028999998,,,,,06,3,True,2023-01-19_18h17.41.998,BrainplaybackQuadrants,2022.2.4,59.967461655372944,
MusicListQ2.csv,music\Q2\MT0002960683.wav,1,0,1,0,0,3,3,1,0,1,1,0,,,,,,,578.6779765900004,590.1451670000006,590.1845312000005,590.6651733999997,,,,,,,06,3,True,2023-01-19_18h17.41.998,BrainplaybackQuadrants,2022.2.4,59.967461655372944,
MusicListQ2.csv,music\Q2\MT0008530072.wav,1,0,1,0,0,3,3,1,0,2,2,1,,,,,,,590.6787678900004,602.1455470999999,602.1845450000001,602.7678452999999,,,,,,,06,3,True,2023-01-19_18h17.41.998,BrainplaybackQuadrants,2022.2.4,59.967461655372944,
MusicListQ2.csv,,1,0,1,0,0,3,3,1,,,,,,,,,,,,,,,,,,,,,06,3,True,2023-01-19_18h17.41.998,BrainplaybackQuadrants,2022.2.4,59.967461655372944,
,,1,0,1,0,,,,,,,,,,,,,,,,,,,,,,,,,06,3,True,2023-01-19_18h17.41.998,BrainplaybackQuadrants,2022.2.4,59.967461655372944,
,,,,,,,,,,,,,,,,,,,,,,,,,,602.7678452999999,626.7296888000001,626.7798038000001,627.7297458000003,,,,,,,,
