MusicsSelect,musics,trials.thisRepN,trials.thisTrialN,trials.thisN,trials.thisIndex,blocks.thisRepN,blocks.thisTrialN,blocks.thisN,blocks.thisIndex,trialsMusics.thisRepN,trialsMusics.thisTrialN,trialsMusics.thisN,trialsMusics.thisIndex,WelcomeMessage.started,WelcomeMessage.stopped,Baseline1.started,Noise.started,Baseline1.stopped,Noise.stopped,Baseline2.started,Baseline2.stopped,MusicExcerpt.started,ISI.started,MusicExcerpt.stopped,ISI.stopped,Baseline3.started,GoodbyeText.started,Baseline3.stopped,GoodbyeText.stopped,participant,session,trigger,date,expName,psychopyVersion,frameRate,
MusicListQ2.csv,music\Q2\MT0005202791.wav,0,0,0,0,0,0,0,1,0,0,0,2,11.058579400007147,27.60640400002012,27.60640400002012,39.55916527002701,39.60918359999778,51.559607000031974,51.559607000031974,63.57136000000173,63.57962084000465,75.06335810001474,75.09271630004514,75.56831060000695,,,,,04,1,True,2023-01-16_16h25.42.162,BrainplaybackQuadrants,2022.2.4,59.73162579225539,
MusicListQ2.csv,music\Q2\MT0011369407.wav,0,0,0,0,0,0,0,1,0,1,1,0,,,,,,,,,75.57968713998562,87.06346269999631,87.09159440000076,87.60753330000443,,,,,04,1,True,2023-01-16_16h25.42.162,BrainplaybackQuadrants,2022.2.4,59.73162579225539,
MusicListQ2.csv,music\Q2\MT0005409948.wav,0,0,0,0,0,0,0,1,0,2,2,1,,,,,,,,,87.61340578000527,99.06424620002508,99.12110710004345,99.58051850000629,,,,,04,1,True,2023-01-16_16h25.42.162,BrainplaybackQuadrants,2022.2.4,59.73162579225539,
MusicListQ2.csv,,0,0,0,0,0,0,0,1,,,,,,,,,,,,,,,,,,,,,04,1,True,2023-01-16_16h25.42.162,BrainplaybackQuadrants,2022.2.4,59.73162579225539,
MusicListQ4.csv,music\Q4\MT0005129157.wav,0,0,0,0,0,1,1,3,0,0,0,2,,,99.58051850000629,111.56268817001838,111.59604959998978,123.56304590002401,123.56304590002401,135.6275275000371,135.6302399499982,147.06400340003893,147.14186720002908,147.62099470000248,,,,,04,1,True,2023-01-16_16h25.42.162,BrainplaybackQuadrants,2022.2.4,59.73162579225539,
MusicListQ4.csv,music\Q4\MT0013095380.wav,0,0,0,0,0,1,1,3,0,1,1,0,,,,,,,,,147.6306011500128,159.06442460004473,159.1421382999979,159.6362647000351,,,,,04,1,True,2023-01-16_16h25.42.162,BrainplaybackQuadrants,2022.2.4,59.73162579225539,
MusicListQ4.csv,music\Q4\MT0005550441.wav,0,0,0,0,0,1,1,3,0,2,2,1,,,,,,,,,159.6477645200095,171.06484470004216,171.1514240000397,171.57627600000706,,,,,04,1,True,2023-01-16_16h25.42.162,BrainplaybackQuadrants,2022.2.4,59.73162579225539,
MusicListQ4.csv,,0,0,0,0,0,1,1,3,,,,,,,,,,,,,,,,,,,,,04,1,True,2023-01-16_16h25.42.162,BrainplaybackQuadrants,2022.2.4,59.73162579225539,
MusicListQ3.csv,music\Q3\MT0004131058.wav,0,0,0,0,0,2,2,2,0,0,0,1,,,171.57627600000706,183.56529906999202,183.581969699997,,195.5717188999988,,207.649537350022,219.06653290003305,219.1618346000323,219.59413209999911,,,,,04,1,True,2023-01-16_16h25.42.162,BrainplaybackQuadrants,2022.2.4,59.73162579225539,
MusicListQ3.csv,music\Q3\MT0010804974.wav,0,0,0,0,0,2,2,2,0,1,1,0,,,,,,,,,219.59994850999792,231.06701050000265,231.11144910001894,231.6325807000394,,,,,04,1,True,2023-01-16_16h25.42.162,BrainplaybackQuadrants,2022.2.4,59.73162579225539,
MusicListQ3.csv,music\Q3\MT0003930610.wav,0,0,0,0,0,2,2,2,0,2,2,2,,,,,,,,,231.63359584999853,243.0715844000224,243.15286830003606,,,,,,04,1,True,2023-01-16_16h25.42.162,BrainplaybackQuadrants,2022.2.4,59.73162579225539,
MusicListQ3.csv,,0,0,0,0,0,2,2,2,,,,,,,,,,,,,,,,,,,,,04,1,True,2023-01-16_16h25.42.162,BrainplaybackQuadrants,2022.2.4,59.73162579225539,
MusicListQ1.csv,music\Q1\MT0005083488.wav,0,0,0,0,0,3,3,0,0,0,0,1,,,243.61457289999817,255.56779037004452,255.61783310002647,,267.57176620000973,,279.61877530998896,291.06917269999394,291.1219972000108,291.5873848000192,,,,,04,1,True,2023-01-16_16h25.42.162,BrainplaybackQuadrants,2022.2.4,59.73162579225539,
MusicListQ1.csv,music\Q1\MT0004751933.wav,0,0,0,0,0,3,3,0,0,1,1,2,,,,,,,,,291.5858621400315,303.06955720001133,303.09194519999437,303.6327820000006,,,,,04,1,True,2023-01-16_16h25.42.162,BrainplaybackQuadrants,2022.2.4,59.73162579225539,
MusicListQ1.csv,music\Q1\MT0012202513.wav,0,0,0,0,0,3,3,0,0,2,2,0,,,,,,,,,303.6363216500322,315.0700540000107,315.1420146000455,315.62336269998923,,,,,04,1,True,2023-01-16_16h25.42.162,BrainplaybackQuadrants,2022.2.4,59.73162579225539,
MusicListQ1.csv,,0,0,0,0,0,3,3,0,,,,,,,,,,,,,,,,,,,,,04,1,True,2023-01-16_16h25.42.162,BrainplaybackQuadrants,2022.2.4,59.73162579225539,
,,0,0,0,0,,,,,,,,,,,,,,,,,,,,,,,,,04,1,True,2023-01-16_16h25.42.162,BrainplaybackQuadrants,2022.2.4,59.73162579225539,
MusicListQ3.csv,music\Q3\MT0011398970.wav,1,0,1,0,0,0,0,2,0,0,0,0,,,315.62336269998923,327.62047596999327,327.6371377000469,,339.6243159000296,,351.7045371500135,363.12170010001864,363.2104905000306,363.6852732000407,,,,,04,1,True,2023-01-16_16h25.42.162,BrainplaybackQuadrants,2022.2.4,59.73162579225539,
MusicListQ3.csv,music\Q3\MT0011440705.wav,1,0,1,0,0,0,0,2,0,1,1,1,,,,,,,,,363.6885013500287,375.12209520000033,375.190376500017,375.6872490000096,,,,,04,1,True,2023-01-16_16h25.42.162,BrainplaybackQuadrants,2022.2.4,59.73162579225539,
MusicListQ3.csv,music\Q3\MT0009521580.wav,1,0,1,0,0,0,0,2,0,2,2,2,,,,,,,,,375.68874515002244,387.12264930002857,387.19163509999635,387.658811900008,,,,,04,1,True,2023-01-16_16h25.42.162,BrainplaybackQuadrants,2022.2.4,59.73162579225539,
MusicListQ3.csv,,1,0,1,0,0,0,0,2,,,,,,,,,,,,,,,,,,,,,04,1,True,2023-01-16_16h25.42.162,BrainplaybackQuadrants,2022.2.4,59.73162579225539,
MusicListQ4.csv,music\Q4\MT0014134790.wav,1,0,1,0,0,1,1,3,0,0,0,0,,,387.658811900008,399.62306867000297,399.6730510999914,,411.6271805000142,,423.67396730998877,435.1242259000428,435.1813633000129,435.6808220000239,,,,,04,1,True,2023-01-16_16h25.42.162,BrainplaybackQuadrants,2022.2.4,59.73162579225539,
MusicListQ4.csv,music\Q4\MT0014475915.wav,1,0,1,0,0,1,1,3,0,1,1,1,,,,,,,,,435.6908856500231,447.1080084000132,447.19105060002767,447.6666436000378,,,,,04,1,True,2023-01-16_16h25.42.162,BrainplaybackQuadrants,2022.2.4,59.73162579225539,
MusicListQ4.csv,music\Q4\MT0012222183.wav,1,0,1,0,0,1,1,3,0,2,2,2,,,,,,,,,447.67464145002305,459.1084029999911,459.1804805000429,459.64735849999124,,,,,04,1,True,2023-01-16_16h25.42.162,BrainplaybackQuadrants,2022.2.4,59.73162579225539,
MusicListQ4.csv,,1,0,1,0,0,1,1,3,,,,,,,,,,,,,,,,,,,,,04,1,True,2023-01-16_16h25.42.162,BrainplaybackQuadrants,2022.2.4,59.73162579225539,
MusicListQ1.csv,music\Q1\MT0013235939.wav,1,0,1,0,0,2,2,0,0,0,0,0,,,459.64735849999124,471.60880647001903,471.65891370002646,,483.6215923000127,,495.69311374999234,507.1102190000238,507.20057929999894,507.6684767000261,,,,,04,1,True,2023-01-16_16h25.42.162,BrainplaybackQuadrants,2022.2.4,59.73162579225539,
MusicListQ1.csv,music\Q1\MT0013350034.wav,1,0,1,0,0,2,2,0,0,1,1,1,,,,,,,,,507.6768435500271,519.1106414000387,519.1806774000288,519.6369581000181,,,,,04,1,True,2023-01-16_16h25.42.162,BrainplaybackQuadrants,2022.2.4,59.73162579225539,
MusicListQ1.csv,music\Q1\MT0011821215.wav,1,0,1,0,0,2,2,0,0,2,2,2,,,,,,,,,519.6439958100033,531.1110793999978,531.1508396000136,531.6547790000332,,,,,04,1,True,2023-01-16_16h25.42.162,BrainplaybackQuadrants,2022.2.4,59.73162579225539,
MusicListQ1.csv,,1,0,1,0,0,2,2,0,,,,,,,,,,,,,,,,,,,,,04,1,True,2023-01-16_16h25.42.162,BrainplaybackQuadrants,2022.2.4,59.73162579225539,
MusicListQ2.csv,music\Q2\MT0010615428.wav,1,0,1,0,0,3,3,1,0,0,0,2,,,531.6547790000332,543.6115492700076,543.6615111000137,,555.6206575999968,,567.6790882800241,579.1128785000183,579.1807582000038,579.6460752999992,,,,,04,1,True,2023-01-16_16h25.42.162,BrainplaybackQuadrants,2022.2.4,59.73162579225539,
MusicListQ2.csv,music\Q2\MT0012008752.wav,1,0,1,0,0,3,3,1,0,1,1,0,,,,,,,,,579.6461942100374,591.1132999000256,591.1515217000269,591.6715280000353,,,,,04,1,True,2023-01-16_16h25.42.162,BrainplaybackQuadrants,2022.2.4,59.73162579225539,
MusicListQ2.csv,music\Q2\MT0012116237.wav,1,0,1,0,0,3,3,1,0,2,2,1,,,,,,,,,591.6799849500239,603.1137786000036,603.1810376000358,603.7032633000053,,,,,04,1,True,2023-01-16_16h25.42.162,BrainplaybackQuadrants,2022.2.4,59.73162579225539,
MusicListQ2.csv,,1,0,1,0,0,3,3,1,,,,,,,,,,,,,,,,,,,,,04,1,True,2023-01-16_16h25.42.162,BrainplaybackQuadrants,2022.2.4,59.73162579225539,
,,1,0,1,0,,,,,,,,,,,,,,,,,,,,,,,,,04,1,True,2023-01-16_16h25.42.162,BrainplaybackQuadrants,2022.2.4,59.73162579225539,
,,,,,,,,,,,,,,,,,,,,,,,,,,603.7032633000053,627.6813573000254,627.7146613000077,628.6813803000259,,,,,,,,
