MusicsSelect,musics,trials.thisRepN,trials.thisTrialN,trials.thisN,trials.thisIndex,blocks.thisRepN,blocks.thisTrialN,blocks.thisN,blocks.thisIndex,trialsMusics.thisRepN,trialsMusics.thisTrialN,trialsMusics.thisN,trialsMusics.thisIndex,WelcomeMessage.started,Baseline1.started,Noise.started,Baseline1.stopped,Baseline2.started,MusicExcerpt.started,ISI.started,MusicExcerpt.stopped,ISI.stopped,Noise.stopped,Baseline2.stopped,Baseline3.started,GoodbyeText.started,Baseline3.stopped,GoodbyeText.stopped,participant,session,trigger,date,expName,psychopyVersion,frameRate,
MusicListQ2.csv,music\Q2\MT0007812490.wav,0,0,0,0,0,0,0,1,0,0,0,2,13.963911299999381,36.6501102000002,48.59942640000027,48.66537040000003,60.60534799999914,72.65218639999931,84.10251669999889,84.15610959999867,84.61934079999992,,,,,,,17,3,True,2023-04-18_17h19.44.650,BrainplaybackQuadrants,2022.2.4,59.90872306931798,
MusicListQ2.csv,music\Q2\MT0012124855.wav,0,0,0,0,0,0,0,1,0,1,1,0,,,,,,84.6192572999993,96.10330439999962,96.12527389999923,96.62112189999971,,,,,,,17,3,True,2023-04-18_17h19.44.650,BrainplaybackQuadrants,2022.2.4,59.90872306931798,
MusicListQ2.csv,music\Q2\MT0028167155.wav,0,0,0,0,0,0,0,1,0,2,2,1,,,,,,96.61976189999987,108.10337619999882,108.12593969999944,108.61135469999863,,,,,,,17,3,True,2023-04-18_17h19.44.650,BrainplaybackQuadrants,2022.2.4,59.90872306931798,
MusicListQ2.csv,,0,0,0,0,0,0,0,1,,,,,,,,,,,,,,,,,,,,17,3,True,2023-04-18_17h19.44.650,BrainplaybackQuadrants,2022.2.4,59.90872306931798,
MusicListQ4.csv,music\Q4\MT0009289348.wav,0,0,0,0,0,1,1,3,0,0,0,2,,108.61135469999863,120.60421909999987,120.62077049999971,132.60647439999957,144.65485549999957,156.1052022999993,156.16653659999974,156.62692179999976,132.60647439999957,,,,,,17,3,True,2023-04-18_17h19.44.650,BrainplaybackQuadrants,2022.2.4,59.90872306931798,
MusicListQ4.csv,music\Q4\MT0030097602.wav,0,0,0,0,0,1,1,3,0,1,1,1,,,,,,156.63860590000021,168.10554459999912,168.14564229999996,168.62513649999892,,,,,,,17,3,True,2023-04-18_17h19.44.650,BrainplaybackQuadrants,2022.2.4,59.90872306931798,
MusicListQ4.csv,music\Q4\MT0014489361.wav,0,0,0,0,0,1,1,3,0,2,2,0,,,,,,168.6391142999988,180.10602990000007,180.14590449999923,180.61796279999908,,,,,,,17,3,True,2023-04-18_17h19.44.650,BrainplaybackQuadrants,2022.2.4,59.90872306931798,
MusicListQ4.csv,,0,0,0,0,0,1,1,3,,,,,,,,,,,,,,,,,,,,17,3,True,2023-04-18_17h19.44.650,BrainplaybackQuadrants,2022.2.4,59.90872306931798,
MusicListQ1.csv,music\Q1\MT0013389935.wav,0,0,0,0,0,2,2,0,0,0,0,0,,180.61796279999908,192.60650529999856,192.62318669999877,204.61612459999924,216.67264279999907,228.10619640000004,228.17603169999893,228.63216850000026,,,,,,,17,3,True,2023-04-18_17h19.44.650,BrainplaybackQuadrants,2022.2.4,59.90872306931798,
MusicListQ1.csv,music\Q1\MT0008972801.wav,0,0,0,0,0,2,2,0,0,1,1,2,,,,,,228.6397286999987,240.10666189999938,240.14648179999858,240.63333189999867,,,,,,,17,3,True,2023-04-18_17h19.44.650,BrainplaybackQuadrants,2022.2.4,59.90872306931798,
MusicListQ1.csv,music\Q1\MT0027478016.wav,0,0,0,0,0,2,2,0,0,2,2,1,,,,,,240.64007739999997,252.1069338999987,252.14505409999947,252.63403209999888,,,,,,,17,3,True,2023-04-18_17h19.44.650,BrainplaybackQuadrants,2022.2.4,59.90872306931798,
MusicListQ1.csv,,0,0,0,0,0,2,2,0,,,,,,,,,,,,,,,,,,,,17,3,True,2023-04-18_17h19.44.650,BrainplaybackQuadrants,2022.2.4,59.90872306931798,
MusicListQ3.csv,music\Q3\MT0011594970.wav,0,0,0,0,0,3,3,2,0,0,0,0,,252.63403209999888,264.6076242000001,264.64084399999956,276.6158727000002,288.6753922999986,300.1086697999999,300.17551579999963,300.6503408999997,,,,,,,17,3,True,2023-04-18_17h19.44.650,BrainplaybackQuadrants,2022.2.4,59.90872306931798,
MusicListQ3.csv,music\Q3\MT0015599764.wav,0,0,0,0,0,3,3,2,0,1,1,1,,,,,,300.6589095999996,312.1087542999994,312.16590279999946,312.6308044999987,,,,,,,17,3,True,2023-04-18_17h19.44.650,BrainplaybackQuadrants,2022.2.4,59.90872306931798,
MusicListQ3.csv,music\Q3\MT0007265208.wav,0,0,0,0,0,3,3,2,0,2,2,2,,,,,,312.64198999999877,324.1095532999989,324.14597909999975,324.67921690000003,,,,,,,17,3,True,2023-04-18_17h19.44.650,BrainplaybackQuadrants,2022.2.4,59.90872306931798,
MusicListQ3.csv,,0,0,0,0,0,3,3,2,,,,,,,,,,,,,,,,,,,,17,3,True,2023-04-18_17h19.44.650,BrainplaybackQuadrants,2022.2.4,59.90872306931798,
,,0,0,0,0,,,,,,,,,,,,,,,,,,,,,,,,17,3,True,2023-04-18_17h19.44.650,BrainplaybackQuadrants,2022.2.4,59.90872306931798,
MusicListQ4.csv,music\Q4\MT0001058887.wav,1,0,1,0,0,0,0,3,0,0,0,2,,324.67921690000003,336.67678879999966,336.69269220000024,348.68553969999994,360.74449629999873,372.17803899999853,372.2455126999994,372.7079002999999,,,,,,,17,3,True,2023-04-18_17h19.44.650,BrainplaybackQuadrants,2022.2.4,59.90872306931798,
MusicListQ4.csv,music\Q4\MT0028335228.wav,1,0,1,0,0,0,0,3,0,1,1,1,,,,,,372.71151909999986,384.178489599999,384.2165788000002,384.7015995999991,,,,,,,17,3,True,2023-04-18_17h19.44.650,BrainplaybackQuadrants,2022.2.4,59.90872306931798,
MusicListQ4.csv,music\Q4\MT0000235880.wav,1,0,1,0,0,0,0,3,0,2,2,0,,,,,,384.7119856999985,396.1782246999992,396.21425329999875,396.7308254999989,,,,,,,17,3,True,2023-04-18_17h19.44.650,BrainplaybackQuadrants,2022.2.4,59.90872306931798,
MusicListQ4.csv,,1,0,1,0,0,0,0,3,,,,,,,,,,,,,,,,,,,,17,3,True,2023-04-18_17h19.44.650,BrainplaybackQuadrants,2022.2.4,59.90872306931798,
MusicListQ3.csv,music\Q3\MT0000299291.wav,1,0,1,0,0,1,1,2,0,0,0,0,,396.7308254999989,408.6794431,408.74609599999894,420.6858295000002,432.7471388000002,444.18072930000017,444.2474052999987,444.7028785000002,,,,,,,17,3,True,2023-04-18_17h19.44.650,BrainplaybackQuadrants,2022.2.4,59.90872306931798,
MusicListQ3.csv,music\Q3\MT0001515531.wav,1,0,1,0,0,1,1,2,0,1,1,2,,,,,,444.7142114999993,456.1804925999986,456.22508319999906,456.71684559999994,,,,,,,17,3,True,2023-04-18_17h19.44.650,BrainplaybackQuadrants,2022.2.4,59.90872306931798,
MusicListQ3.csv,music\Q3\MT0014050974.wav,1,0,1,0,0,1,1,2,0,2,2,1,,,,,,456.73146960000014,468.16496799999913,468.23527769999964,468.7110653,,,,,,,17,3,True,2023-04-18_17h19.44.650,BrainplaybackQuadrants,2022.2.4,59.90872306931798,
MusicListQ3.csv,,1,0,1,0,0,1,1,2,,,,,,,,,,,,,,,,,,,,17,3,True,2023-04-18_17h19.44.650,BrainplaybackQuadrants,2022.2.4,59.90872306931798,
MusicListQ1.csv,music\Q1\MT0001753457.wav,1,0,1,0,0,2,2,0,0,0,0,2,,468.7110653,480.6654800999988,480.7154288999991,492.66651920000004,504.71656329999934,516.1667335999991,516.2263289000002,516.6950706999996,492.66651920000004,504.7132972999989,,,,,17,3,True,2023-04-18_17h19.44.650,BrainplaybackQuadrants,2022.2.4,59.90872306931798,
MusicListQ1.csv,music\Q1\MT0000414517.wav,1,0,1,0,0,2,2,0,0,1,1,0,,,,,,516.7002679999993,528.1671652999994,528.2062803999997,528.6966327999999,,,,,,,17,3,True,2023-04-18_17h19.44.650,BrainplaybackQuadrants,2022.2.4,59.90872306931798,
MusicListQ1.csv,music\Q1\MT0018617125.wav,1,0,1,0,0,2,2,0,0,2,2,1,,,,,,528.7007101999994,540.1676472999989,540.2064467,540.7184711999998,,,,,,,17,3,True,2023-04-18_17h19.44.650,BrainplaybackQuadrants,2022.2.4,59.90872306931798,
MusicListQ1.csv,,1,0,1,0,0,2,2,0,,,,,,,,,,,,,,,,,,,,17,3,True,2023-04-18_17h19.44.650,BrainplaybackQuadrants,2022.2.4,59.90872306931798,
MusicListQ2.csv,music\Q2\MT0000441552.wav,1,0,1,0,0,3,3,1,0,0,0,0,,540.7184711999998,552.6681501999994,552.7181008999996,564.6759483999995,576.7184907999987,588.1694234999995,588.2262644999992,588.6925541,,,,,,,17,3,True,2023-04-18_17h19.44.650,BrainplaybackQuadrants,2022.2.4,59.90872306931798,
MusicListQ2.csv,music\Q2\MT0014997916.wav,1,0,1,0,0,3,3,1,0,1,1,1,,,,,,588.7029623999994,600.1699036999998,600.2062604000002,600.700041099999,,,,,,,17,3,True,2023-04-18_17h19.44.650,BrainplaybackQuadrants,2022.2.4,59.90872306931798,
MusicListQ2.csv,music\Q2\MT0001993588.wav,1,0,1,0,0,3,3,1,0,2,2,2,,,,,,600.7034773000001,612.1703424999996,612.2065419999999,612.8030718999998,,,,,,,17,3,True,2023-04-18_17h19.44.650,BrainplaybackQuadrants,2022.2.4,59.90872306931798,
MusicListQ2.csv,,1,0,1,0,0,3,3,1,,,,,,,,,,,,,,,,,,,,17,3,True,2023-04-18_17h19.44.650,BrainplaybackQuadrants,2022.2.4,59.90872306931798,
,,1,0,1,0,,,,,,,,,,,,,,,,,,,,,,,,17,3,True,2023-04-18_17h19.44.650,BrainplaybackQuadrants,2022.2.4,59.90872306931798,
,,,,,,,,,,,,,,,,,,,,,,,,,612.8030718999998,636.7712512999988,636.8046091999986,637.7712866000002,,,,,,,,
