MusicsSelect,musics,trials.thisRepN,trials.thisTrialN,trials.thisN,trials.thisIndex,blocks.thisRepN,blocks.thisTrialN,blocks.thisN,blocks.thisIndex,trialsMusics.thisRepN,trialsMusics.thisTrialN,trialsMusics.thisN,trialsMusics.thisIndex,WelcomeMessage.started,Baseline1.started,Noise.started,Baseline1.stopped,Noise.stopped,Baseline2.started,MusicExcerpt.started,ISI.started,MusicExcerpt.stopped,ISI.stopped,Baseline2.stopped,Baseline3.started,GoodbyeText.started,Baseline3.stopped,GoodbyeText.stopped,participant,session,trigger,date,expName,psychopyVersion,frameRate,
MusicListQ2.csv,music\Q2\MT0013885218.wav,0,0,0,0,0,0,0,1,0,0,0,2,8.334504800000104,29.34579440000016,41.294452380000436,41.36134730000049,53.29636180000034,53.29636180000034,65.32839066000051,76.79597580000063,76.83564860000024,77.30094009999993,,,,,,13,1,True,2023-03-30_16h15.13.940,BrainplaybackQuadrants,2022.2.4,61.04059565856708,
MusicListQ2.csv,music\Q2\MT0008511909.wav,0,0,0,0,0,0,0,1,0,1,1,0,,,,,,,77.31218206000048,88.7964234000001,88.82802150000043,89.32337720000032,,,,,,13,1,True,2023-03-30_16h15.13.940,BrainplaybackQuadrants,2022.2.4,61.04059565856708,
MusicListQ2.csv,music\Q2\MT0001927746.wav,0,0,0,0,0,0,0,1,0,2,2,1,,,,,,,89.32904444000032,100.79679510000005,100.83546780000052,101.30271799999991,,,,,,13,1,True,2023-03-30_16h15.13.940,BrainplaybackQuadrants,2022.2.4,61.04059565856708,
MusicListQ2.csv,,0,0,0,0,0,0,0,1,,,,,,,,,,,,,,,,,,,,13,1,True,2023-03-30_16h15.13.940,BrainplaybackQuadrants,2022.2.4,61.04059565856708,
MusicListQ4.csv,music\Q4\MT0000888329.wav,0,0,0,0,0,1,1,3,0,0,0,1,,101.30271799999991,113.29712158000056,113.3140757000001,125.29767470000024,125.29767470000024,137.31430946000057,148.79853999999978,148.81567150000046,149.3020032000004,137.30606220000027,,,,,13,1,True,2023-03-30_16h15.13.940,BrainplaybackQuadrants,2022.2.4,61.04059565856708,
MusicListQ4.csv,music\Q4\MT0017672677.wav,0,0,0,0,0,1,1,3,0,1,1,2,,,,,,,149.31473066,160.79891860000043,160.82519219999995,161.30425520000063,,,,,,13,1,True,2023-03-30_16h15.13.940,BrainplaybackQuadrants,2022.2.4,61.04059565856708,
MusicListQ4.csv,music\Q4\MT0010810859.wav,0,0,0,0,0,1,1,3,0,2,2,0,,,,,,,161.31516586000055,172.79939439999998,172.8266622000001,173.3133085999998,,,,,,13,1,True,2023-03-30_16h15.13.940,BrainplaybackQuadrants,2022.2.4,61.04059565856708,
MusicListQ4.csv,,0,0,0,0,0,1,1,3,,,,,,,,,,,,,,,,,,,,13,1,True,2023-03-30_16h15.13.940,BrainplaybackQuadrants,2022.2.4,61.04059565856708,
MusicListQ1.csv,music\Q1\MT0015742096.wav,0,0,0,0,0,2,2,0,0,0,0,2,,173.3133085999998,185.29965408000027,185.31649180000022,,197.3055599999998,209.36643662000026,220.80111790000046,220.87601460000042,221.3177538,,,,,,13,1,True,2023-03-30_16h15.13.940,BrainplaybackQuadrants,2022.2.4,61.04059565856708,
MusicListQ1.csv,music\Q1\MT0009845275.wav,0,0,0,0,0,2,2,0,0,1,1,0,,,,,,,221.3173341600001,232.80154550000043,232.82551849999982,233.32622260000062,,,,,,13,1,True,2023-03-30_16h15.13.940,BrainplaybackQuadrants,2022.2.4,61.04059565856708,
MusicListQ1.csv,music\Q1\MT0001605268.wav,0,0,0,0,0,2,2,0,0,2,2,1,,,,,,,233.33420504000006,244.8020432000003,244.83697680000023,245.31333379999978,,,,,,13,1,True,2023-03-30_16h15.13.940,BrainplaybackQuadrants,2022.2.4,61.04059565856708,
MusicListQ1.csv,,0,0,0,0,0,2,2,0,,,,,,,,,,,,,,,,,,,,13,1,True,2023-03-30_16h15.13.940,BrainplaybackQuadrants,2022.2.4,61.04059565856708,
MusicListQ3.csv,music\Q3\MT0013044535.wav,0,0,0,0,0,3,3,2,0,0,0,2,,245.31333379999978,257.30219608000044,257.3191084,,269.30516309999985,281.3527287400006,292.8038789000002,292.85607020000043,293.31903610000063,,,,,,13,1,True,2023-03-30_16h15.13.940,BrainplaybackQuadrants,2022.2.4,61.04059565856708,
MusicListQ3.csv,music\Q3\MT0007583962.wav,0,0,0,0,0,3,3,2,0,1,1,0,,,,,,,293.32008285999984,304.7875918,304.8259013000006,305.3052593000002,,,,,,13,1,True,2023-03-30_16h15.13.940,BrainplaybackQuadrants,2022.2.4,61.04059565856708,
MusicListQ3.csv,music\Q3\MT0001052263.wav,0,0,0,0,0,3,3,2,0,2,2,1,,,,,,,305.3201488400004,316.7879247000001,316.8243790000006,317.3315510000002,,,,,,13,1,True,2023-03-30_16h15.13.940,BrainplaybackQuadrants,2022.2.4,61.04059565856708,
MusicListQ3.csv,,0,0,0,0,0,3,3,2,,,,,,,,,,,,,,,,,,,,13,1,True,2023-03-30_16h15.13.940,BrainplaybackQuadrants,2022.2.4,61.04059565856708,
,,0,0,0,0,,,,,,,,,,,,,,,,,,,,,,,,13,1,True,2023-03-30_16h15.13.940,BrainplaybackQuadrants,2022.2.4,61.04059565856708,
MusicListQ4.csv,music\Q4\MT0028813196.wav,1,0,1,0,0,0,0,3,0,0,0,0,,317.3315510000002,329.3215389800005,329.3383838999998,,341.3259014000005,353.3720501400007,364.8229943000006,364.8851211000001,365.3406882999998,,,,,,13,1,True,2023-03-30_16h15.13.940,BrainplaybackQuadrants,2022.2.4,61.04059565856708,
MusicListQ4.csv,music\Q4\MT0000922312.wav,1,0,1,0,0,0,0,3,0,1,1,2,,,,,,,365.35566044000046,376.82340380000005,376.8664497999998,377.3458909000001,,,,,,13,1,True,2023-03-30_16h15.13.940,BrainplaybackQuadrants,2022.2.4,61.04059565856708,
MusicListQ4.csv,music\Q4\MT0010842738.wav,1,0,1,0,0,0,0,3,0,2,2,1,,,,,,,377.3560586400003,388.8238529999999,388.8575947999998,389.34305790000053,,,,,,13,1,True,2023-03-30_16h15.13.940,BrainplaybackQuadrants,2022.2.4,61.04059565856708,
MusicListQ4.csv,,1,0,1,0,0,0,0,3,,,,,,,,,,,,,,,,,,,,13,1,True,2023-03-30_16h15.13.940,BrainplaybackQuadrants,2022.2.4,61.04059565856708,
MusicListQ3.csv,music\Q3\MT0014737299.wav,1,0,1,0,0,1,1,2,0,0,0,0,,389.34305790000053,401.32412798000024,401.3576311000006,413.34154750000016,413.34154750000016,425.37450164000023,436.8256009000006,436.88533259999986,437.34054730000025,,,,,,13,1,True,2023-03-30_16h15.13.940,BrainplaybackQuadrants,2022.2.4,61.04059565856708,
MusicListQ3.csv,music\Q3\MT0007652281.wav,1,0,1,0,0,1,1,2,0,1,1,1,,,,,,,437.34184206000066,448.8260363999998,448.84605290000036,449.34239549999984,,,,,,13,1,True,2023-03-30_16h15.13.940,BrainplaybackQuadrants,2022.2.4,61.04059565856708,
MusicListQ3.csv,music\Q3\MT0001284801.wav,1,0,1,0,0,1,1,2,0,2,2,2,,,,,,,449.34225736000064,460.82647910000014,460.84625740000047,461.3477853000004,,,,,,13,1,True,2023-03-30_16h15.13.940,BrainplaybackQuadrants,2022.2.4,61.04059565856708,
MusicListQ3.csv,,1,0,1,0,0,1,1,2,,,,,,,,,,,,,,,,,,,,13,1,True,2023-03-30_16h15.13.940,BrainplaybackQuadrants,2022.2.4,61.04059565856708,
MusicListQ1.csv,music\Q1\MT0026753827.wav,1,0,1,0,0,2,2,0,0,0,0,0,,461.3477853000004,473.3267570800006,473.36025900000004,,485.33634770000026,497.37710634000035,508.82821200000035,508.8854430000001,509.3522810000004,,,,,,13,1,True,2023-03-30_16h15.13.940,BrainplaybackQuadrants,2022.2.4,61.04059565856708,
MusicListQ1.csv,music\Q1\MT0001680969.wav,1,0,1,0,0,2,2,0,0,1,1,2,,,,,,,509.36086733999986,520.8286607,520.8652436000002,521.3451544999998,,,,,,13,1,True,2023-03-30_16h15.13.940,BrainplaybackQuadrants,2022.2.4,61.04059565856708,
MusicListQ1.csv,music\Q1\MT0009897495.wav,1,0,1,0,0,2,2,0,0,2,2,1,,,,,,,521.3449556600003,532.8290838000003,532.8457226999999,533.3535545000004,,,,,,13,1,True,2023-03-30_16h15.13.940,BrainplaybackQuadrants,2022.2.4,61.04059565856708,
MusicListQ1.csv,,1,0,1,0,0,2,2,0,,,,,,,,,,,,,,,,,,,,13,1,True,2023-03-30_16h15.13.940,BrainplaybackQuadrants,2022.2.4,61.04059565856708,
MusicListQ2.csv,music\Q2\MT0001962373.wav,1,0,1,0,0,3,3,1,0,0,0,2,,533.3535545000004,545.3294986799999,545.3630874999999,,557.3376532000002,569.3798374399997,580.8309530000006,580.8869453000007,581.3497378000002,,,,,,13,1,True,2023-03-30_16h15.13.940,BrainplaybackQuadrants,2022.2.4,61.04059565856708,
MusicListQ2.csv,music\Q2\MT0008570712.wav,1,0,1,0,0,3,3,1,0,1,1,1,,,,,,,581.3471844600003,592.8314003000005,592.8565527000001,593.3503037,,,,,,13,1,True,2023-03-30_16h15.13.940,BrainplaybackQuadrants,2022.2.4,61.04059565856708,
MusicListQ2.csv,music\Q2\MT0017475710.wav,1,0,1,0,0,3,3,1,0,2,2,0,,,,,,,593.35006836,604.8151478999998,604.8818086000001,605.4177731,,,,,,13,1,True,2023-03-30_16h15.13.940,BrainplaybackQuadrants,2022.2.4,61.04059565856708,
MusicListQ2.csv,,1,0,1,0,0,3,3,1,,,,,,,,,,,,,,,,,,,,13,1,True,2023-03-30_16h15.13.940,BrainplaybackQuadrants,2022.2.4,61.04059565856708,
,,1,0,1,0,,,,,,,,,,,,,,,,,,,,,,,,13,1,True,2023-03-30_16h15.13.940,BrainplaybackQuadrants,2022.2.4,61.04059565856708,
,,,,,,,,,,,,,,,,,,,,,,,,,605.4177731,629.3827172000001,629.4326952000001,630.3827431,,,,,,,,
