MusicsSelect,musics,trials.thisRepN,trials.thisTrialN,trials.thisN,trials.thisIndex,blocks.thisRepN,blocks.thisTrialN,blocks.thisN,blocks.thisIndex,trialsMusics.thisRepN,trialsMusics.thisTrialN,trialsMusics.thisN,trialsMusics.thisIndex,WelcomeMessage.started,Baseline1.started,Noise.started,Baseline1.stopped,Baseline2.started,MusicExcerpt.started,ISI.started,MusicExcerpt.stopped,ISI.stopped,Noise.stopped,Baseline2.stopped,Baseline3.started,GoodbyeText.started,Baseline3.stopped,participant,session,trigger,date,expName,psychopyVersion,frameRate,
MusicListQ3.csv,music\Q3\MT0011899302.wav,0,0,0,0,0,0,0,2,0,0,0,1,11.400249300000723,33.31813760002842,45.26339184999233,45.33012860000599,57.274348100007046,69.31437075004214,80.76480290002655,80.82356620003702,81.28971380001167,,,,,,08,3,True,2023-02-13_18h35.05.501,BrainplaybackQuadrants,2022.2.4,59.96577153526985,
MusicListQ3.csv,music\Q3\MT0005155949.wav,0,0,0,0,0,0,0,2,0,1,1,0,,,,,,81.29794454999501,92.76469610002823,92.80315580003662,93.29024060000665,,,,,,08,3,True,2023-02-13_18h35.05.501,BrainplaybackQuadrants,2022.2.4,59.96577153526985,
MusicListQ3.csv,music\Q3\MT0028698324.wav,0,0,0,0,0,0,0,2,0,2,2,2,,,,,,93.29788065003231,104.7679846000392,104.80529310001293,105.2762645999901,,,,,,08,3,True,2023-02-13_18h35.05.501,BrainplaybackQuadrants,2022.2.4,59.96577153526985,
MusicListQ3.csv,,0,0,0,0,0,0,0,2,,,,,,,,,,,,,,,,,,,08,3,True,2023-02-13_18h35.05.501,BrainplaybackQuadrants,2022.2.4,59.96577153526985,
MusicListQ2.csv,music\Q2\MT0006564487.wav,0,0,0,0,0,1,1,1,0,0,0,0,,105.2762645999901,117.26613534998614,117.28288300003624,129.27322890004143,141.31635224999627,152.76944659999572,152.82395879999967,153.29276059998665,,,,,,08,3,True,2023-02-13_18h35.05.501,BrainplaybackQuadrants,2022.2.4,59.96577153526985,
MusicListQ2.csv,music\Q2\MT0029099688.wav,0,0,0,0,0,1,1,1,0,1,1,2,,,,,,153.3029302500072,164.76741219998803,164.82562900002813,165.29204000002937,,,,,,08,3,True,2023-02-13_18h35.05.501,BrainplaybackQuadrants,2022.2.4,59.96577153526985,
MusicListQ2.csv,music\Q2\MT0012914763.wav,0,0,0,0,0,1,1,1,0,2,2,1,,,,,,165.3011631499976,176.76846910000313,176.8036013999954,177.27789359999588,,,,,,08,3,True,2023-02-13_18h35.05.501,BrainplaybackQuadrants,2022.2.4,59.96577153526985,
MusicListQ2.csv,,0,0,0,0,0,1,1,1,,,,,,,,,,,,,,,,,,,08,3,True,2023-02-13_18h35.05.501,BrainplaybackQuadrants,2022.2.4,59.96577153526985,
MusicListQ1.csv,music\Q1\MT0029492542.wav,0,0,0,0,0,2,2,0,0,0,0,2,,177.27789359999588,189.26884725003038,189.28500640002312,201.27442289999453,213.31970714998897,224.77021200000308,224.8222033000202,225.2860051000025,,,,,,08,3,True,2023-02-13_18h35.05.501,BrainplaybackQuadrants,2022.2.4,59.96577153526985,
MusicListQ1.csv,music\Q1\MT0006367176.wav,0,0,0,0,0,2,2,0,0,1,1,0,,,,,,225.2868126000394,236.77067140000872,236.79493650002405,237.27052100002766,,,,,,08,3,True,2023-02-13_18h35.05.501,BrainplaybackQuadrants,2022.2.4,59.96577153526985,
MusicListQ1.csv,music\Q1\MT0013914319.wav,0,0,0,0,0,2,2,0,0,2,2,1,,,,,,237.27008844999364,248.7711483000312,248.81,249.28316799999448,,,,,,08,3,True,2023-02-13_18h35.05.501,BrainplaybackQuadrants,2022.2.4,59.96577153526985,
MusicListQ1.csv,,0,0,0,0,0,2,2,0,,,,,,,,,,,,,,,,,,,08,3,True,2023-02-13_18h35.05.501,BrainplaybackQuadrants,2022.2.4,59.96577153526985,
MusicListQ4.csv,music\Q4\MT0015659520.wav,0,0,0,0,0,3,3,3,0,0,0,1,,249.28316799999448,261.2709915500018,261.2882823999971,273.27387440000894,285.32232815003954,296.7729687000392,296.82368590001715,297.29212550004013,273.27387440000894,,,,,08,3,True,2023-02-13_18h35.05.501,BrainplaybackQuadrants,2022.2.4,59.96577153526985,
MusicListQ4.csv,music\Q4\MT0030495725.wav,0,0,0,0,0,3,3,3,0,1,1,2,,,,,,297.3055790500366,308.7728455000324,308.8135957000195,309.29697339999257,,,,,,08,3,True,2023-02-13_18h35.05.501,BrainplaybackQuadrants,2022.2.4,59.96577153526985,
MusicListQ4.csv,music\Q4\MT0006983241.wav,0,0,0,0,0,3,3,3,0,2,2,0,,,,,,309.30665315000806,320.77330280002207,320.8134174000006,321.3182994000381,,,,,,08,3,True,2023-02-13_18h35.05.501,BrainplaybackQuadrants,2022.2.4,59.96577153526985,
MusicListQ4.csv,,0,0,0,0,0,3,3,3,,,,,,,,,,,,,,,,,,,08,3,True,2023-02-13_18h35.05.501,BrainplaybackQuadrants,2022.2.4,59.96577153526985,
,,0,0,0,0,,,,,,,,,,,,,,,,,,,,,,,08,3,True,2023-02-13_18h35.05.501,BrainplaybackQuadrants,2022.2.4,59.96577153526985,
MusicListQ3.csv,music\Q3\MT0026905937.wav,1,0,1,0,0,0,0,2,0,0,0,1,,321.3182994000381,333.3077617500094,333.32431820000056,345.3123103000107,357.3578345500282,368.80899130000034,368.8638124000281,369.33170179999433,,,,,,08,3,True,2023-02-13_18h35.05.501,BrainplaybackQuadrants,2022.2.4,59.96577153526985,
MusicListQ3.csv,music\Q3\MT0005262725.wav,1,0,1,0,0,0,0,2,0,1,1,2,,,,,,369.34164205001434,380.80946369998856,380.8436768000247,381.33073440002045,,,,,,08,3,True,2023-02-13_18h35.05.501,BrainplaybackQuadrants,2022.2.4,59.96577153526985,
MusicListQ3.csv,music\Q3\MT0015004289.wav,1,0,1,0,0,0,0,2,0,2,2,0,,,,,,381.34265705000143,392.80989939998835,392.8429638000089,393.33018150000134,,,,,,08,3,True,2023-02-13_18h35.05.501,BrainplaybackQuadrants,2022.2.4,59.96577153526985,
MusicListQ3.csv,,1,0,1,0,0,0,0,2,,,,,,,,,,,,,,,,,,,08,3,True,2023-02-13_18h35.05.501,BrainplaybackQuadrants,2022.2.4,59.96577153526985,
MusicListQ2.csv,music\Q2\MT0026963572.wav,1,0,1,0,0,1,1,1,0,0,0,0,,393.33018150000134,405.3103336500353,405.34316360001685,417.3153851000243,429.3610825500218,440.8111789000104,440.86392770003295,441.33342949999496,,,,,,08,3,True,2023-02-13_18h35.05.501,BrainplaybackQuadrants,2022.2.4,59.96577153526985,
MusicListQ2.csv,music\Q2\MT0028750297.wav,1,0,1,0,0,1,1,1,0,1,1,1,,,,,,441.34495145000983,452.8116503999918,452.8449587000068,453.3373701000237,,,,,,08,3,True,2023-02-13_18h35.05.501,BrainplaybackQuadrants,2022.2.4,59.96577153526985,
MusicListQ2.csv,music\Q2\MT0006806145.wav,1,0,1,0,0,1,1,1,0,2,2,2,,,,,,453.34540985000785,464.8121050000191,464.84538399998564,465.33505100000184,,,,,,08,3,True,2023-02-13_18h35.05.501,BrainplaybackQuadrants,2022.2.4,59.96577153526985,
MusicListQ2.csv,,1,0,1,0,0,1,1,1,,,,,,,,,,,,,,,,,,,08,3,True,2023-02-13_18h35.05.501,BrainplaybackQuadrants,2022.2.4,59.96577153526985,
MusicListQ1.csv,music\Q1\MT0027035970.wav,1,0,1,0,0,2,2,0,0,0,0,0,,465.33505100000184,477.3131946499925,477.34589779999806,489.3137346000294,501.34952675004024,512.8163964000414,512.8551296000369,513.3348760000081,489.3137346000294,501.34204930003034,,,,08,3,True,2023-02-13_18h35.05.501,BrainplaybackQuadrants,2022.2.4,59.96577153526985,
MusicListQ1.csv,music\Q1\MT0029065626.wav,1,0,1,0,0,2,2,0,0,1,1,1,,,,,,513.3329294000287,524.816853300028,524.8450698000379,525.3335388000123,,,,,,08,3,True,2023-02-13_18h35.05.501,BrainplaybackQuadrants,2022.2.4,59.96577153526985,
MusicListQ1.csv,music\Q1\MT0007057303.wav,1,0,1,0,0,2,2,0,0,2,2,2,,,,,,525.3334544000099,536.8175997000071,536.8446079000132,537.3437508000061,,,,,,08,3,True,2023-02-13_18h35.05.501,BrainplaybackQuadrants,2022.2.4,59.96577153526985,
MusicListQ1.csv,,1,0,1,0,0,2,2,0,,,,,,,,,,,,,,,,,,,08,3,True,2023-02-13_18h35.05.501,BrainplaybackQuadrants,2022.2.4,59.96577153526985,
MusicListQ4.csv,music\Q4\MT0029976595.wav,1,0,1,0,0,3,3,3,0,0,0,0,,537.3437508000061,549.31766255002,549.3513905000291,561.3182018999942,573.3521142500103,584.8190201999969,584.8554027000209,585.3437218000181,561.3182018999942,573.3466811000253,,,,08,3,True,2023-02-13_18h35.05.501,BrainplaybackQuadrants,2022.2.4,59.96577153526985,
MusicListQ4.csv,music\Q4\MT0030494794.wav,1,0,1,0,0,3,3,3,0,1,1,1,,,,,,585.3521484500379,596.8198366999859,596.8559089000337,597.346064100042,,,,,,08,3,True,2023-02-13_18h35.05.501,BrainplaybackQuadrants,2022.2.4,59.96577153526985,
MusicListQ4.csv,music\Q4\MT0007119529.wav,1,0,1,0,0,3,3,3,0,2,2,2,,,,,,597.3527049500262,608.8198525999906,608.8644047999987,609.4189593000337,,,,,,08,3,True,2023-02-13_18h35.05.501,BrainplaybackQuadrants,2022.2.4,59.96577153526985,
MusicListQ4.csv,,1,0,1,0,0,3,3,3,,,,,,,,,,,,,,,,,,,08,3,True,2023-02-13_18h35.05.501,BrainplaybackQuadrants,2022.2.4,59.96577153526985,
,,1,0,1,0,,,,,,,,,,,,,,,,,,,,,,,08,3,True,2023-02-13_18h35.05.501,BrainplaybackQuadrants,2022.2.4,59.96577153526985,
,,,,,,,,,,,,,,,,,,,,,,,,,609.4189593000337,633.3875777000212,633.4209413999924,,,,,,,,
