MusicsSelect,musics,trials.thisRepN,trials.thisTrialN,trials.thisN,trials.thisIndex,blocks.thisRepN,blocks.thisTrialN,blocks.thisN,blocks.thisIndex,trialsMusics.thisRepN,trialsMusics.thisTrialN,trialsMusics.thisN,trialsMusics.thisIndex,WelcomeMessage.started,Baseline1.started,Noise.started,Baseline1.stopped,Noise.stopped,Baseline2.started,Baseline2.stopped,MusicExcerpt.started,ISI.started,MusicExcerpt.stopped,ISI.stopped,Baseline3.started,GoodbyeText.started,Baseline3.stopped,GoodbyeText.stopped,participant,session,trigger,date,expName,psychopyVersion,frameRate,
MusicListQ4.csv,music\Q4\MT0015659520.wav,0,0,0,0,0,0,0,3,0,0,0,1,15.245740899990778,31.22205490001943,43.18532374002389,43.234656499989796,55.186078600003384,55.186078600003384,67.20772639999632,67.21887862000732,78.68598449998535,78.72584949998418,79.22857630002545,,,,,04,3,True,2023-01-16_16h48.02.907,BrainplaybackQuadrants,2022.2.4,59.73979732561675,
MusicListQ4.csv,music\Q4\MT0030495725.wav,0,0,0,0,0,0,0,3,0,1,1,2,,,,,,,,79.23654806003906,90.68709369999124,90.74570349999703,91.20703739998862,,,,,04,3,True,2023-01-16_16h48.02.907,BrainplaybackQuadrants,2022.2.4,59.73979732561675,
MusicListQ4.csv,music\Q4\MT0006983241.wav,0,0,0,0,0,0,0,3,0,2,2,0,,,,,,,,91.22029412001721,102.67019530001562,102.7259708000347,103.1714318000013,,,,,04,3,True,2023-01-16_16h48.02.907,BrainplaybackQuadrants,2022.2.4,59.73979732561675,
MusicListQ4.csv,,0,0,0,0,0,0,0,3,,,,,,,,,,,,,,,,,,,,04,3,True,2023-01-16_16h48.02.907,BrainplaybackQuadrants,2022.2.4,59.73979732561675,
MusicListQ1.csv,music\Q1\MT0029492542.wav,0,0,0,0,0,1,1,0,0,0,0,2,,103.1714318000013,115.17150553998654,115.171545899997,,127.17842190002557,,139.22238062001415,150.6728649000288,150.7254259000183,151.18994200002635,,,,,04,3,True,2023-01-16_16h48.02.907,BrainplaybackQuadrants,2022.2.4,59.73979732561675,
MusicListQ1.csv,music\Q1\MT0013914319.wav,0,0,0,0,0,1,1,0,0,1,1,1,,,,,,,,151.18952068003125,162.67312089999905,,163.2287837000331,,,,,04,3,True,2023-01-16_16h48.02.907,BrainplaybackQuadrants,2022.2.4,59.73979732561675,
MusicListQ1.csv,music\Q1\MT0006367176.wav,0,0,0,0,0,1,1,0,0,2,2,0,,,,,,,,163.23977080002078,174.67356570000993,174.74700850003865,175.2014086000272,,,,,04,3,True,2023-01-16_16h48.02.907,BrainplaybackQuadrants,2022.2.4,59.73979732561675,
MusicListQ1.csv,,0,0,0,0,0,1,1,0,,,,,,,,,,,,,,,,,,,,04,3,True,2023-01-16_16h48.02.907,BrainplaybackQuadrants,2022.2.4,59.73979732561675,
MusicListQ2.csv,music\Q2\MT0012914763.wav,0,0,0,0,0,2,2,1,0,0,0,1,,175.2014086000272,187.17401313998852,187.20735460001742,,199.177313400025,,211.2415821600123,222.6752780000097,222.7464940000209,223.23928530002013,,,,,04,3,True,2023-01-16_16h48.02.907,BrainplaybackQuadrants,2022.2.4,59.73979732561675,
MusicListQ2.csv,music\Q2\MT0006564487.wav,0,0,0,0,0,2,2,1,0,1,1,0,,,,,,,,223.2420424000302,234.67575039999792,234.74661680002464,235.23457020003116,,,,,04,3,True,2023-01-16_16h48.02.907,BrainplaybackQuadrants,2022.2.4,59.73979732561675,
MusicListQ2.csv,music\Q2\MT0029099688.wav,0,0,0,0,0,2,2,1,0,2,2,2,,,,,,,,235.24245440002414,246.67624330002582,246.74678210000275,247.20783060003305,,,,,04,3,True,2023-01-16_16h48.02.907,BrainplaybackQuadrants,2022.2.4,59.73979732561675,
MusicListQ2.csv,,0,0,0,0,0,2,2,1,,,,,,,,,,,,,,,,,,,,04,3,True,2023-01-16_16h48.02.907,BrainplaybackQuadrants,2022.2.4,59.73979732561675,
MusicListQ3.csv,music\Q3\MT0005155949.wav,0,0,0,0,0,3,3,2,0,0,0,0,,247.20783060003305,259.1766480400285,259.20998139999574,271.1769665000029,271.1769665000029,283.22839310002746,283.2275029600249,294.67791590001434,294.7362313999911,295.24046529998304,,,,,04,3,True,2023-01-16_16h48.02.907,BrainplaybackQuadrants,2022.2.4,59.73979732561675,
MusicListQ3.csv,music\Q3\MT0028698324.wav,0,0,0,0,0,3,3,2,0,1,1,2,,,,,,,,295.24455630002194,306.67861730000004,306.74758100003237,307.2449258000124,,,,,04,3,True,2023-01-16_16h48.02.907,BrainplaybackQuadrants,2022.2.4,59.73979732561675,
MusicListQ3.csv,music\Q3\MT0011899302.wav,0,0,0,0,0,3,3,2,0,2,2,1,,,,,,,,307.2452974000189,318.6790001000045,318.74774070002604,319.230646800017,,,,,04,3,True,2023-01-16_16h48.02.907,BrainplaybackQuadrants,2022.2.4,59.73979732561675,
MusicListQ3.csv,,0,0,0,0,0,3,3,2,,,,,,,,,,,,,,,,,,,,04,3,True,2023-01-16_16h48.02.907,BrainplaybackQuadrants,2022.2.4,59.73979732561675,
,,0,0,0,0,,,,,,,,,,,,,,,,,,,,,,,,04,3,True,2023-01-16_16h48.02.907,BrainplaybackQuadrants,2022.2.4,59.73979732561675,
MusicListQ1.csv,music\Q1\MT0027035970.wav,1,0,1,0,0,0,0,0,0,0,0,0,,319.230646800017,331.22953314004116,331.246157400019,,343.2375899000326,,355.3136369000131,366.73078169999644,366.81760010001017,367.29039770003874,,,,,04,3,True,2023-01-16_16h48.02.907,BrainplaybackQuadrants,2022.2.4,59.73979732561675,
MusicListQ1.csv,music\Q1\MT0007057303.wav,1,0,1,0,0,0,0,0,0,1,1,2,,,,,,,,367.2974545000179,378.7311880000052,378.7978666999843,379.2929799000267,,,,,04,3,True,2023-01-16_16h48.02.907,BrainplaybackQuadrants,2022.2.4,59.73979732561675,
MusicListQ1.csv,music\Q1\MT0029065626.wav,1,0,1,0,0,0,0,0,0,2,2,1,,,,,,,,379.2978328000463,390.73168130003614,390.8057046000031,391.24884230003227,,,,,04,3,True,2023-01-16_16h48.02.907,BrainplaybackQuadrants,2022.2.4,59.73979732561675,
MusicListQ1.csv,,1,0,1,0,0,0,0,0,,,,,,,,,,,,,,,,,,,,04,3,True,2023-01-16_16h48.02.907,BrainplaybackQuadrants,2022.2.4,59.73979732561675,
MusicListQ4.csv,music\Q4\MT0030494794.wav,1,0,1,0,0,1,1,3,0,0,0,1,,391.24884230003227,403.2154696399986,403.2487901999848,,415.22791600000346,,427.2996761999966,438.71676340000704,438.80771389999427,439.2744579000282,,,,,04,3,True,2023-01-16_16h48.02.907,BrainplaybackQuadrants,2022.2.4,59.73979732561675,
MusicListQ4.csv,music\Q4\MT0029976595.wav,1,0,1,0,0,1,1,3,0,1,1,0,,,,,,,,439.28343919999315,450.7172033000388,450.79747640003916,451.28468520002207,,,,,04,3,True,2023-01-16_16h48.02.907,BrainplaybackQuadrants,2022.2.4,59.73979732561675,
MusicListQ4.csv,music\Q4\MT0007119529.wav,1,0,1,0,0,1,1,3,0,2,2,2,,,,,,,,451.2838544000115,462.7176367000211,462.7981206999975,463.23594069998944,,,,,04,3,True,2023-01-16_16h48.02.907,BrainplaybackQuadrants,2022.2.4,59.73979732561675,
MusicListQ4.csv,,1,0,1,0,0,1,1,3,,,,,,,,,,,,,,,,,,,,04,3,True,2023-01-16_16h48.02.907,BrainplaybackQuadrants,2022.2.4,59.73979732561675,
MusicListQ2.csv,music\Q2\MT0006806145.wav,1,0,1,0,0,2,2,1,0,0,0,2,,463.23594069998944,475.21806954000493,475.2530983000179,,487.2260100999847,,499.2856089600362,510.7193444999866,510.78771210002014,511.2526302000042,,,,,04,3,True,2023-01-16_16h48.02.907,BrainplaybackQuadrants,2022.2.4,59.73979732561675,
MusicListQ2.csv,music\Q2\MT0026963572.wav,1,0,1,0,0,2,2,1,0,1,1,0,,,,,,,,511.25269032001376,522.7197805999895,522.7570905000321,523.2848403000389,,,,,04,3,True,2023-01-16_16h48.02.907,BrainplaybackQuadrants,2022.2.4,59.73979732561675,
MusicListQ2.csv,music\Q2\MT0028750297.wav,1,0,1,0,0,2,2,1,0,2,2,1,,,,,,,,523.2864267000405,534.7202103000018,534.7976403000066,535.2597801000229,,,,,04,3,True,2023-01-16_16h48.02.907,BrainplaybackQuadrants,2022.2.4,59.73979732561675,
MusicListQ2.csv,,1,0,1,0,0,2,2,1,,,,,,,,,,,,,,,,,,,,04,3,True,2023-01-16_16h48.02.907,BrainplaybackQuadrants,2022.2.4,59.73979732561675,
MusicListQ3.csv,music\Q3\MT0015004289.wav,1,0,1,0,0,3,3,2,0,0,0,0,,535.2597801000229,547.2200746400224,547.2723743999959,,559.2279978999868,,571.2881841600291,582.7217808000278,582.796883700008,583.2784978999989,,,,,04,3,True,2023-01-16_16h48.02.907,BrainplaybackQuadrants,2022.2.4,59.73979732561675,
MusicListQ3.csv,music\Q3\MT0005262725.wav,1,0,1,0,0,3,3,2,0,1,1,2,,,,,,,,583.2884292000381,594.7221941000316,594.7889121000189,595.289314499998,,,,,04,3,True,2023-01-16_16h48.02.907,BrainplaybackQuadrants,2022.2.4,59.73979732561675,
MusicListQ3.csv,music\Q3\MT0026905937.wav,1,0,1,0,0,3,3,2,0,2,2,1,,,,,,,,595.2888443999982,606.7226519000251,606.7965730000287,607.3064417000278,,,,,04,3,True,2023-01-16_16h48.02.907,BrainplaybackQuadrants,2022.2.4,59.73979732561675,
MusicListQ3.csv,,1,0,1,0,0,3,3,2,,,,,,,,,,,,,,,,,,,,04,3,True,2023-01-16_16h48.02.907,BrainplaybackQuadrants,2022.2.4,59.73979732561675,
,,1,0,1,0,,,,,,,,,,,,,,,,,,,,,,,,04,3,True,2023-01-16_16h48.02.907,BrainplaybackQuadrants,2022.2.4,59.73979732561675,
,,,,,,,,,,,,,,,,,,,,,,,,,607.3064417000278,631.2903551000054,631.3070486999932,632.2904099000152,,,,,,,,
