trials.thisRepN,trials.thisTrialN,trials.thisN,trials.thisIndex,starttext.started,starttext.stopped,music.id,Quadrants.id,russellsQuad.started,russellsQuad.stopped,music.started,music.stopped,mouse.x,mouse.y,mouse.leftButton,mouse.midButton,mouse.rightButton,mouse.time,mouse.started,mouse.stopped,fixCross.started,fixCross.stopped,goodbyetext.started,goodbyetext.stopped,participant,session,date,expName,psychopyVersion,frameRate,
0,0,0,0,13.338741899991874,None,../fMRI_stim/music/Q3/MT0028947009.wav,Q4,16.090083199960645,None,16.099345639918464,28.107446299982257,[0.285],[-0.18875],[1],[0],[0],[12.224664200039115],0.014764439896680415,None,28.323406199982855,None,,,01_02,001,2023-03-20_16h37.47.672,musicemotionlatency,2022.1.3,60.2550112503346,
1,0,1,0,,,../fMRI_stim/music/Q2/MT0002415184.wav,Q2,30.557666499982588,None,30.555115399998613,None,[-0.23375],[0.1725],[1],[0],[0],[4.520500900049228],0.01229450001846999,None,35.07594229996903,None,,,01_02,001,2023-03-20_16h37.47.672,musicemotionlatency,2022.1.3,60.2550112503346,
2,0,2,0,,,../fMRI_stim/music/Q4/MT0013676763.wav,Q1,37.33289560000412,None,37.306985899980646,None,[0.265],[0.27],[1],[0],[0],[4.509270700043999],0.002682299993466586,None,41.82901749998564,None,,,01_02,001,2023-03-20_16h37.47.672,musicemotionlatency,2022.1.3,60.2550112503346,
3,0,3,0,,,../fMRI_stim/music/Q3/MT0008841966.wav,Q1,44.083105199970305,None,44.074089299945626,None,[0.0375],[0.1925],[1],[0],[0],[8.520701000001281],0.014501099998597056,None,52.59255060000578,None,,,01_02,001,2023-03-20_16h37.47.672,musicemotionlatency,2022.1.3,60.2550112503346,
4,0,4,0,,,../fMRI_stim/music/Q2/MT0029772184.wav,Q2,54.83206960000098,None,54.824178499984555,None,[-0.28625],[0.32375],[1],[0],[0],[4.288244700001087],0.015478300047107041,None,59.109277299954556,None,,,01_02,001,2023-03-20_16h37.47.672,musicemotionlatency,2022.1.3,60.2550112503346,
5,0,5,0,,,../fMRI_stim/music/Q1/MT0002119439.wav,Q1,61.36740449996432,None,61.34083479997935,None,[0.27],[0.2425],[1],[0],[0],[6.590812400041614],0.00033119996078312397,None,67.94356679997873,None,,,01_02,001,2023-03-20_16h37.47.672,musicemotionlatency,2022.1.3,60.2550112503346,
6,0,6,0,,,../fMRI_stim/music/Q2/MT0011975274.wav,Q1,70.1829225999536,None,70.17453919997206,None,[0.055],[0.32875],[1],[0],[0],[6.348712900013197],0.008781299984548241,None,76.5269924000022,None,,,01_02,001,2023-03-20_16h37.47.672,musicemotionlatency,2022.1.3,60.2550112503346,
7,0,7,0,,,../fMRI_stim/music/Q4/MT0000336135.wav,Q4,78.76784139999654,None,78.74121457999571,None,[0.2325],[-0.0875],[1],[0],[0],[9.407069800014142],0.000443380034994334,None,88.16012039995985,None,,,01_02,001,2023-03-20_16h37.47.672,musicemotionlatency,2022.1.3,60.2550112503346,
8,0,8,0,,,../fMRI_stim/music/Q3/MT0001673884.wav,Q3,90.43300329998601,None,90.39171179995174,None,[-0.29],[-0.31],[1],[0],[0],[9.996091099979822],0.006237800000235438,None,100.3942274999572,None,,,01_02,001,2023-03-20_16h37.47.672,musicemotionlatency,2022.1.3,60.2550112503346,
9,0,9,0,,,../fMRI_stim/music/Q4/MT0011886148.wav,Q3,102.6353078999673,None,102.62526229996001,None,[-0.25875],[-0.2925],[1],[0],[0],[11.266291500010993],0.00946760002989322,None,113.89457949995995,None,,,01_02,001,2023-03-20_16h37.47.672,musicemotionlatency,2022.1.3,60.2550112503346,
10,0,10,0,,,../fMRI_stim/music/Q4/MT0001494812.wav,Q3,116.13552819995675,None,116.12592689995654,None,[-0.17125],[-0.10625],[1],[0],[0],[10.148869399970863],0.009075200010556728,None,126.27828819997376,None,,,01_02,001,2023-03-20_16h37.47.672,musicemotionlatency,2022.1.3,60.2550112503346,
11,0,11,0,,,../fMRI_stim/music/Q1/MT0000442827.wav,Q1,128.51746780000394,None,128.50915129994974,None,[0.21],[0.235],[1],[0],[0],[7.850432700011879],0.01018449995899573,None,136.36166219995357,None,,,01_02,001,2023-03-20_16h37.47.672,musicemotionlatency,2022.1.3,60.2550112503346,
12,0,12,0,,,../fMRI_stim/music/Q3/MT0000300896.wav,Q4,138.6016002999968,None,138.57626517999452,None,[0.22125],[-0.27],[1],[0],[0],[11.622348799952306],0.0005475800717249513,None,150.21224619995337,None,,,01_02,001,2023-03-20_16h37.47.672,musicemotionlatency,2022.1.3,60.2550112503346,
13,0,13,0,,,../fMRI_stim/music/Q3/MT0011308097.wav,Q3,152.45200980000664,None,152.44346809998387,None,[-0.1725],[-0.2625],[1],[0],[0],[6.135681500018109],0.01217729999916628,None,158.5788760999567,None,,,01_02,001,2023-03-20_16h37.47.672,musicemotionlatency,2022.1.3,60.2550112503346,
14,0,14,0,,,../fMRI_stim/music/Q4/MT0001195535.wav,Q4,160.81866220000666,None,160.81039829994552,None,[0.09125],[-0.255],[1],[0],[0],[9.7223480999819],0.015885300002992153,None,170.52918680000585,None,,,01_02,001,2023-03-20_16h37.47.672,musicemotionlatency,2022.1.3,60.2550112503346,
15,0,15,0,,,../fMRI_stim/music/Q1/MT0029874624.wav,Q1,172.7688049999997,None,172.74411327994895,None,[0.22125],[0.25875],[1],[0],[0],[3.8928974000154994],0.003077479952480644,None,176.6461407999741,None,,,01_02,001,2023-03-20_16h37.47.672,musicemotionlatency,2022.1.3,60.2550112503346,
16,0,16,0,,,../fMRI_stim/music/Q4/MT0031495046.wav,Q4,178.86833799997112,None,178.8604949799832,None,[0.075],[-0.1775],[1],[0],[0],[8.830142199993134],0.006744880054611713,None,187.6961597999907,None,,,01_02,001,2023-03-20_16h37.47.672,musicemotionlatency,2022.1.3,60.2550112503346,
17,0,17,0,,,../fMRI_stim/music/Q1/MT0012846850.wav,Q1,189.969597599993,None,189.94443021996412,None,[0.20625],[0.24625],[1],[0],[0],[4.526608199987095],0.0032029199646785855,None,194.47977919998812,None,,,01_02,001,2023-03-20_16h37.47.672,musicemotionlatency,2022.1.3,60.2550112503346,
18,0,18,0,,,../fMRI_stim/music/Q2/MT0009421924.wav,Q2,196.73646849999204,None,196.71126209996874,None,[-0.27625],[0.3275],[1],[0],[0],[3.5264718999969773],0.0027913000085391104,None,200.24681179999607,None,,,01_02,001,2023-03-20_16h37.47.672,musicemotionlatency,2022.1.3,60.2550112503346,
19,0,19,0,,,../fMRI_stim/music/Q2/MT0000456939.wav,Q2,202.53688899998087,None,202.51077923998236,None,[-0.15125],[0.30875],[1],[0],[0],[4.31080400000792],0.00380154000595212,None,206.83044970000628,None,,,01_02,001,2023-03-20_16h37.47.672,musicemotionlatency,2022.1.3,60.2550112503346,
20,0,20,0,,,../fMRI_stim/music/Q2/MT0002372242.wav,Q2,209.10476409998955,None,209.09439103996846,None,[-0.08875],[0.1625],[1],[0],[0],[7.429217200027779],0.00646404002327472,None,216.53015939996112,None,,,01_02,001,2023-03-20_16h37.47.672,musicemotionlatency,2022.1.3,60.2550112503346,
21,0,21,0,,,../fMRI_stim/music/Q1/MT0010900969.wav,Q4,218.7876614999841,None,218.7784524199902,None,[0.27875],[-0.0575],[1],[0],[0],[5.588458200043533],0.015418420021887869,None,224.364211099979,None,,,01_02,001,2023-03-20_16h37.47.672,musicemotionlatency,2022.1.3,60.2550112503346,
22,0,22,0,,,../fMRI_stim/music/Q3/MT0001526386.wav,Q4,226.65379459998803,None,226.62821673996513,None,[0.0975],[-0.0525],[1],[0],[0],[10.277735100011341],0.0037611399893648922,None,236.91433609998785,None,,,01_02,001,2023-03-20_16h37.47.672,musicemotionlatency,2022.1.3,60.2550112503346,
23,0,23,0,,,../fMRI_stim/music/Q1/MT0001898830.wav,Q1,239.15360899997177,None,239.145756599959,None,[0.21625],[0.17],[1],[0],[0],[8.147640399984084],0.007921200012788177,None,247.29829999996582,None,,,01_02,001,2023-03-20_16h37.47.672,musicemotionlatency,2022.1.3,60.2550112503346,
,,,,,,,,,,,,,,,,,,,,,,249.2984415999963,None,,,,,,,
