trials.thisRepN,trials.thisTrialN,trials.thisN,trials.thisIndex,starttext.started,starttext.stopped,music.id,Quadrants.id,russellsQuad.started,russellsQuad.stopped,music.started,music.stopped,mouse.x,mouse.y,mouse.leftButton,mouse.midButton,mouse.rightButton,mouse.time,mouse.started,mouse.stopped,fixCross.started,fixCross.stopped,goodbyetext.started,goodbyetext.stopped,participant,session,date,expName,psychopyVersion,frameRate,
0,0,0,0,13.632616700022481,None,../fMRI_stim/music/Q1/MT0002033629.wav,Q1,16.384746700001415,None,16.37066149993916,None,[0.2125],[0.305],[1],[0],[0],[8.651706999982707],0.003096700005698949,None,25.033860299969092,None,,,01_01,001,2023-03-20_16h32.54.721,musicemotionlatency,2022.1.3,60.086512555001896,
1,0,1,0,,,../fMRI_stim/music/Q3/MT0031951901.wav,Q2,27.286946700012777,None,27.285244379960933,39.28458480001427,[-0.09],[0.13],[1],[0],[0],[12.560499899962451],0.009644879959523678,None,39.85103750001872,None,,,01_01,001,2023-03-20_16h32.54.721,musicemotionlatency,2022.1.3,60.086512555001896,
2,0,2,0,,,../fMRI_stim/music/Q1/MT0031922089.wav,Q1,42.0853858999908,None,42.06949561996152,None,[0.26],[0.32875],[1],[0],[0],[8.234636400011368],0.0010978199425153434,None,50.31747980002547,None,,,01_01,001,2023-03-20_16h32.54.721,musicemotionlatency,2022.1.3,60.086512555001896,
3,0,3,0,,,../fMRI_stim/music/Q1/MT0032405040.wav,Q2,52.55202990001999,None,52.55253899996751,None,[-0.075],[0.32375],[1],[0],[0],[10.864910800009966],0.00994910002918914,None,63.41996199998539,None,,,01_01,001,2023-03-20_16h32.54.721,musicemotionlatency,2022.1.3,60.086512555001896,
4,0,4,0,,,../fMRI_stim/music/Q4/MT0031886830.wav,Q2,65.67622459999984,None,65.67142157997004,77.67314209998585,[-0.29625],[0.23],[1],[0],[0],[12.331180900044274],0.01121808000607416,None,78.00374379998539,None,,,01_01,001,2023-03-20_16h32.54.721,musicemotionlatency,2022.1.3,60.086512555001896,
5,0,5,0,,,../fMRI_stim/music/Q2/MT0004293364.wav,Q1,80.24344330001622,None,80.23878039998817,None,[0.11625],[0.33375],[1],[0],[0],[10.761059300042689],0.008104900014586747,None,91.00424059998477,None,,,01_01,001,2023-03-20_16h32.54.721,musicemotionlatency,2022.1.3,60.086512555001896,
6,0,6,0,,,../fMRI_stim/music/Q3/MT0001533920.wav,Q3,93.24366039998131,None,93.22216141996905,None,[-0.10875],[-0.0675],[1],[0],[0],[8.869716899993364],0.0008444199338555336,None,102.10468689998379,None,,,01_01,001,2023-03-20_16h32.54.721,musicemotionlatency,2022.1.3,60.086512555001896,
7,0,7,0,,,../fMRI_stim/music/Q2/MT0004447086.wav,Q2,104.34422019997146,None,104.32228951998987,None,[-0.285],[0.32625],[1],[0],[0],[5.024222699983511],0.004386419954244047,None,109.35477079998236,None,,,01_01,001,2023-03-20_16h32.54.721,musicemotionlatency,2022.1.3,60.086512555001896,
8,0,8,0,,,../fMRI_stim/music/Q4/MT0000922312.wav,Q4,111.61082940001506,None,111.57295211997116,None,[0.165],[-0.135],[1],[0],[0],[8.800714000011794],0.014513119938783348,None,120.37195270002121,None,,,01_01,001,2023-03-20_16h32.54.721,musicemotionlatency,2022.1.3,60.086512555001896,
9,0,9,0,,,../fMRI_stim/music/Q1/MT0003669917.wav,Q2,122.5963708999916,None,122.576219439978,None,[-0.21625],[0.14875],[1],[0],[0],[8.488448599993717],0.005124140006955713,None,131.07228770002257,None,,,01_01,001,2023-03-20_16h32.54.721,musicemotionlatency,2022.1.3,60.086512555001896,
10,0,10,0,,,../fMRI_stim/music/Q4/MT0033461826.wav,Q3,133.31199969997397,None,133.28984531997705,None,[-0.2725],[-0.3025],[1],[0],[0],[6.989946499990765],0.0031638200161978602,None,140.28875880001578,None,,,01_01,001,2023-03-20_16h32.54.721,musicemotionlatency,2022.1.3,60.086512555001896,
11,0,11,0,,,../fMRI_stim/music/Q2/MT0033097471.wav,Q2,142.52835430001142,None,142.50680551996922,None,[-0.1725],[0.19875],[1],[0],[0],[6.004200900031719],0.0012146200169809163,None,148.52273359999526,None,,,01_01,001,2023-03-20_16h32.54.721,musicemotionlatency,2022.1.3,60.086512555001896,
12,0,12,0,,,../fMRI_stim/music/Q2/MT0001962373.wav,Q2,150.76178900001105,None,150.74070751997644,None,[-0.28875],[0.3225],[1],[0],[0],[5.788393399969209],0.0020379199413582683,None,156.5394740999909,None,,,01_01,001,2023-03-20_16h32.54.721,musicemotionlatency,2022.1.3,60.086512555001896,
13,0,13,0,,,../fMRI_stim/music/Q1/MT0003594672.wav,Q1,158.80040060001193,None,158.77533169995877,None,[0.305],[0.14],[1],[0],[0],[8.05949509999482],0.008151099900715053,None,166.8396161000128,None,,,01_01,001,2023-03-20_16h32.54.721,musicemotionlatency,2022.1.3,60.086512555001896,
14,0,14,0,,,../fMRI_stim/music/Q2/MT0030214520.wav,Q2,169.07917290000478,None,169.05722781997176,None,[-0.2675],[0.3275],[1],[0],[0],[5.435015099996235],0.0008201199816539884,None,174.50655250001,None,,,01_01,001,2023-03-20_16h32.54.721,musicemotionlatency,2022.1.3,60.086512555001896,
15,0,15,0,,,../fMRI_stim/music/Q4/MT0001394087.wav,Q4,176.75808270002017,None,176.7560216000129,None,[0.02375],[-0.28625],[1],[0],[0],[9.18313560000388],0.011477800027932972,None,185.94014510000125,None,,,01_01,001,2023-03-20_16h32.54.721,musicemotionlatency,2022.1.3,60.086512555001896,
16,0,16,0,,,../fMRI_stim/music/Q4/MT0003778826.wav,Q2,188.1794804999954,None,188.15839161996266,None,[-0.285],[0.1025],[1],[0],[0],[10.921476099989377],0.0057758199400268495,None,199.08848859998398,None,,,01_01,001,2023-03-20_16h32.54.721,musicemotionlatency,2022.1.3,60.086512555001896,
17,0,17,0,,,../fMRI_stim/music/Q1/MT0001680969.wav,Q2,201.32411049999064,None,201.32328659997438,None,[-0.0425],[0.22625],[1],[0],[0],[9.965222500031814],0.014046799973584712,None,211.288893799996,None,,,01_01,001,2023-03-20_16h32.54.721,musicemotionlatency,2022.1.3,60.086512555001896,
18,0,18,0,,,../fMRI_stim/music/Q3/MT0003037596.wav,Q3,213.54035450000083,None,213.54038527999074,225.5438435000251,[-0.10375],[-0.06625],[1],[0],[0],[12.521569299977273],0.015862379979807884,None,226.05777780001517,None,,,01_01,001,2023-03-20_16h32.54.721,musicemotionlatency,2022.1.3,60.086512555001896,
19,0,19,0,,,../fMRI_stim/music/Q3/MT0001284801.wav,Q4,228.31522029999178,None,228.292762499972,None,[0.09875],[-0.12625],[1],[0],[0],[5.905860300001223],0.0032279998995363712,None,234.2078964000102,None,,,01_01,001,2023-03-20_16h32.54.721,musicemotionlatency,2022.1.3,60.086512555001896,
20,0,20,0,,,../fMRI_stim/music/Q3/MT0030252676.wav,Q4,236.44886419997783,None,236.44287329996587,None,[0.12],[-0.07375],[1],[0],[0],[9.46663229999831],0.013787600037176162,None,245.9085109999869,None,,,01_01,001,2023-03-20_16h32.54.721,musicemotionlatency,2022.1.3,60.086512555001896,
21,0,21,0,,,../fMRI_stim/music/Q4/MT0003454112.wav,Q4,248.14974730001995,None,248.1431159999629,None,[0.1625],[-0.2175],[1],[0],[0],[8.033264399971813],0.013739399961195886,None,256.1754006000119,None,,,01_01,001,2023-03-20_16h32.54.721,musicemotionlatency,2022.1.3,60.086512555001896,
22,0,22,0,,,../fMRI_stim/music/Q3/MT0003053135.wav,Q4,258.48344139999244,None,258.4605632399675,None,[0.165],[-0.33375],[1],[0],[0],[11.292073100048583],0.006005340022966266,None,269.75897460000124,None,,,01_01,001,2023-03-20_16h32.54.721,musicemotionlatency,2022.1.3,60.086512555001896,
23,0,23,0,,,../fMRI_stim/music/Q2/MT0002385077.wav,Q2,271.9996327999979,None,271.9939874999982,None,[-0.27875],[0.32875],[1],[0],[0],[3.7861949000507593],0.01665930007584393,None,275.77620449999813,None,,,01_01,001,2023-03-20_16h32.54.721,musicemotionlatency,2022.1.3,60.086512555001896,
,,,,,,,,,,,,,,,,,,,,,,277.7760508999927,None,,,,,,,
