trials.thisRepN,trials.thisTrialN,trials.thisN,trials.thisIndex,starttext.started,starttext.stopped,music.id,Quadrants.id,russellsQuad.started,russellsQuad.stopped,music.started,music.stopped,mouse.x,mouse.y,mouse.leftButton,mouse.midButton,mouse.rightButton,mouse.time,mouse.started,mouse.stopped,fixCross.started,fixCross.stopped,goodbyetext.started,goodbyetext.stopped,participant,session,date,expName,psychopyVersion,frameRate,
0,0,0,0,12.078909675008617,None,../fMRI_stim/music/Q1/MT0005713768.wav,Q1,14.563202389050275,None,14.508034153934569,None,[0.1925],[0.07375],[1],[0],[0],[5.651786924107],0.006491562002338469,None,20.163177645066753,None,,,03_04,001,2023_Feb_16_1607,musicemotionlatency,2021.2.3,119.6840131847142,
1,0,1,0,,,../fMRI_stim/music/Q2/MT0006292011.wav,Q2,22.54783628496807,None,22.533073905995117,34.54755538003519,[-0.14125],[0.065],[1],[0],[0],[12.34524475701619],0.0014599778223782778,None,34.886715863016434,None,,,03_04,001,2023_Feb_16_1607,musicemotionlatency,2021.2.3,119.6840131847142,
2,0,2,0,,,../fMRI_stim/music/Q2/MT0015541501.wav,Q1,37.29038787505124,None,37.2733456770191,None,[0.1975],[0.09125],[1],[0],[0],[5.472746337996796],0.002918164012953639,None,42.75561390200164,None,,,03_04,001,2023_Feb_16_1607,musicemotionlatency,2021.2.3,119.6840131847142,
3,0,3,0,,,../fMRI_stim/music/Q1/MT0018651126.wav,Q1,45.17415791901294,None,45.15462748403661,None,[0.2025],[0.1075],[1],[0],[0],[3.5044049359858036],0.0001156640937551856,None,48.668781784013845,None,,,03_04,001,2023_Feb_16_1607,musicemotionlatency,2021.2.3,119.6840131847142,
4,0,4,0,,,../fMRI_stim/music/Q3/MT0009521580.wav,Q4,51.06870083604008,None,51.05468896396924,None,[0.1575],[-0.18125],[1],[0],[0],[8.92407476704102],0.00441732385661453,None,59.987143318052404,None,,,03_04,001,2023_Feb_16_1607,musicemotionlatency,2021.2.3,119.6840131847142,
5,0,5,0,,,../fMRI_stim/music/Q1/MT0011821215.wav,Q4,62.40126651804894,None,62.38937997200992,None,[0.17125],[-0.11625],[1],[0],[0],[4.805244122049771],0.0076794029446318746,None,67.19893875601701,None,,,03_04,001,2023_Feb_16_1607,musicemotionlatency,2021.2.3,119.6840131847142,
6,0,6,0,,,../fMRI_stim/music/Q4/MT0002132088.wav,Q4,69.59919180499855,None,69.58227394993882,None,[0.10875],[-0.12875],[1],[0],[0],[8.955007922952063],0.0012110109673812985,None,78.54839578398969,None,,,03_04,001,2023_Feb_16_1607,musicemotionlatency,2021.2.3,119.6840131847142,
7,0,7,0,,,../fMRI_stim/music/Q1/MT0002222957.wav,Q1,80.95832228206564,None,80.9406614850508,None,[0.195],[0.195],[1],[0],[0],[3.2631218140013516],0.0017387650441378355,None,84.21306422899943,None,,,03_04,001,2023_Feb_16_1607,musicemotionlatency,2021.2.3,119.6840131847142,
8,0,8,0,,,../fMRI_stim/music/Q4/MT0001594582.wav,Q3,86.6584668540163,None,86.64482558993622,98.66244438802823,[-0.12625],[-0.1275],[1],[0],[0],[12.452284784987569],0.004279425949789584,None,99.11003670899663,None,,,03_04,001,2023_Feb_16_1607,musicemotionlatency,2021.2.3,119.6840131847142,
9,0,9,0,,,../fMRI_stim/music/Q2/MT0010615428.wav,Q2,101.6064447449753,None,101.59403437494765,113.60073526902124,[-0.0825],[0.155],[1],[0],[0],[12.867712698993273],0.005946193938143551,None,114.46622445899993,None,,,03_04,001,2023_Feb_16_1607,musicemotionlatency,2021.2.3,119.6840131847142,
10,0,10,0,,,../fMRI_stim/music/Q4/MT0027976714.wav,Q3,116.85047376505099,None,116.83306917399167,128.8411273410311,[-0.2575],[-0.1525],[1],[0],[0],[12.12000546103809],0.0018339728703722358,None,128.97799545200542,None,,,03_04,001,2023_Feb_16_1607,musicemotionlatency,2021.2.3,119.6840131847142,
11,0,11,0,,,../fMRI_stim/music/Q4/MT0028374210.wav,Q3,131.40828837803565,None,131.3930846719537,None,[-0.22],[-0.17625],[1],[0],[0],[6.170014134957455],0.004394477000460029,None,137.56978317606263,None,,,03_04,001,2023_Feb_16_1607,musicemotionlatency,2021.2.3,119.6840131847142,
12,0,12,0,,,../fMRI_stim/music/Q2/MT0014845647.wav,Q2,139.99844936805312,None,139.98546834096777,None,[-0.145],[0.17125],[1],[0],[0],[8.805150761967525],0.007170737837441266,None,148.79564833000768,None,,,03_04,001,2023_Feb_16_1607,musicemotionlatency,2021.2.3,119.6840131847142,
13,0,13,0,,,../fMRI_stim/music/Q3/MT0013416300.wav,Q3,151.1980868469691,None,151.1791479479987,None,[-0.17625],[-0.1775],[1],[0],[0],[7.061300322995521],0.0005622870521619916,None,158.25109900999814,None,,,03_04,001,2023_Feb_16_1607,musicemotionlatency,2021.2.3,119.6840131847142,
14,0,14,0,,,../fMRI_stim/music/Q3/MT0014118699.wav,Q3,160.6676874749828,None,160.65345648804214,None,[-0.13625],[-0.1675],[1],[0],[0],[9.605041738948785],0.0052030651131644845,None,170.26642004295718,None,,,03_04,001,2023_Feb_16_1607,musicemotionlatency,2021.2.3,119.6840131847142,
15,0,15,0,,,../fMRI_stim/music/Q4/MT0012222183.wav,Q3,172.71809414902236,None,172.7022573919734,184.71342010400258,[-0.06],[-0.15875],[1],[0],[0],[12.472866644035093],0.0019541350193321705,None,185.18754932796583,None,,,03_04,001,2023_Feb_16_1607,musicemotionlatency,2021.2.3,119.6840131847142,
16,0,16,0,,,../fMRI_stim/music/Q3/MT0004842694.wav,Q3,187.57115732005332,None,187.56116869000252,None,[-0.0625],[-0.16125],[1],[0],[0],[10.473421012982726],0.006034871912561357,None,198.03991919895634,None,,,03_04,001,2023_Feb_16_1607,musicemotionlatency,2021.2.3,119.6840131847142,
17,0,17,0,,,../fMRI_stim/music/Q3/MT0002086401.wav,Q3,200.44810586306266,None,200.43102322700432,212.44414318399504,[-0.0975],[-0.17625],[1],[0],[0],[13.64806573104579],0.0020651230588555336,None,214.08763143897522,None,,,03_04,001,2023_Feb_16_1607,musicemotionlatency,2021.2.3,119.6840131847142,
18,0,18,0,,,../fMRI_stim/music/Q1/MT0002794078.wav,Q1,216.4507316639647,None,216.4390794200357,None,[0.20375],[0.1325],[1],[0],[0],[8.832937326980755],0.007287776097655296,None,225.27729081001598,None,,,03_04,001,2023_Feb_16_1607,musicemotionlatency,2021.2.3,119.6840131847142,
19,0,19,0,,,../fMRI_stim/music/Q2/MT0002602057.wav,Q1,227.68147661699913,None,227.6656769839581,None,[0.16],[0.0775],[1],[0],[0],[10.279374174075201],0.0042164509650319815,None,237.95186713396106,None,,,03_04,001,2023_Feb_16_1607,musicemotionlatency,2021.2.3,119.6840131847142,
20,0,20,0,,,../fMRI_stim/music/Q2/MT0003462877.wav,Q1,240.34955814201385,None,240.33677051304838,None,[0.1975],[0.14625],[1],[0],[0],[3.4524261070182547],0.003952505998313427,None,243.79573432402685,None,,,03_04,001,2023_Feb_16_1607,musicemotionlatency,2021.2.3,119.6840131847142,
21,0,21,0,,,../fMRI_stim/music/Q1/MT0018031959.wav,Q1,246.17676959896926,None,246.16092203198932,None,[0.205],[0.18375],[1],[0],[0],[7.716827469062991],0.0018540059681981802,None,253.90034629998263,None,,,03_04,001,2023_Feb_16_1607,musicemotionlatency,2021.2.3,119.6840131847142,
22,0,22,0,,,../fMRI_stim/music/Q3/MT0001844620.wav,Q3,256.3425461159786,None,256.3262186579639,268.3434618089814,[-0.1775],[-0.24375],[1],[0],[0],[16.079657495953143],0.0037243589758872986,None,272.4259824260371,None,,,03_04,001,2023_Feb_16_1607,musicemotionlatency,2021.2.3,119.6840131847142,
23,0,23,0,,,../fMRI_stim/music/Q4/MT0006117018.wav,Q4,274.7837043220643,None,274.7704060619697,None,[0.22875],[-0.18875],[1],[0],[0],[8.361435586004518],0.005975460982881486,None,283.1370990689611,None,,,03_04,001,2023_Feb_16_1607,musicemotionlatency,2021.2.3,119.6840131847142,
,,,,,,,,,,,,,,,,,,,,,,285.15343873703387,None,,,,,,,
