trials.thisRepN,trials.thisTrialN,trials.thisN,trials.thisIndex,starttext.started,starttext.stopped,music.id,Quadrants.id,russellsQuad.started,russellsQuad.stopped,music.started,music.stopped,mouse.x,mouse.y,mouse.leftButton,mouse.midButton,mouse.rightButton,mouse.time,mouse.started,mouse.stopped,fixCross.started,fixCross.stopped,goodbyetext.started,goodbyetext.stopped,participant,session,date,expName,psychopyVersion,frameRate,
0,0,0,0,22.90501487092115,None,../fMRI_stim/music/Q4/MT0001058887.wav,Q4,25.45110076700803,None,25.325543753884265,None,[0.12875],[-0.1875],[1],[0],[0],[8.546621995978057],0.0010624369606375694,None,33.882859727949835,None,,,03_02,001,2023_Feb_16_1556,musicemotionlatency,2021.2.3,121.54635162751968,
1,0,1,0,,,../fMRI_stim/music/Q1/MT0001753457.wav,Q4,36.2723431190243,None,36.258876955288,None,[0.14],[-0.18375],[1],[0],[0],[7.88089722301811],0.003018529387190938,None,44.1478069559671,None,,,03_02,001,2023_Feb_16_1556,musicemotionlatency,2021.2.3,121.54635162751968,
2,0,2,0,,,../fMRI_stim/music/Q4/MT0011938737.wav,Q4,46.541823590989225,None,46.53036210641731,None,[0.185],[-0.1975],[1],[0],[0],[3.872154406970367],0.0054073145147413015,None,50.4067583399592,None,,,03_02,001,2023_Feb_16_1556,musicemotionlatency,2021.2.3,121.54635162751968,
3,0,3,0,,,../fMRI_stim/music/Q2/MT0001993588.wav,Q2,52.80973099498078,None,52.7981214554864,None,[-0.09375],[0.08875],[1],[0],[0],[4.879227751051076],0.004963947576470673,None,57.68381180695724,None,,,03_02,001,2023_Feb_16_1556,musicemotionlatency,2021.2.3,121.54635162751968,
4,0,4,0,,,../fMRI_stim/music/Q1/MT0004339430.wav,Q1,60.17655521992128,None,60.16139904153533,None,[0.22875],[0.095],[1],[0],[0],[10.818056432064623],0.00486556557007134,None,70.98688907700125,None,,,03_02,001,2023_Feb_16_1556,musicemotionlatency,2021.2.3,121.54635162751968,
5,0,5,0,,,../fMRI_stim/music/Q3/MT0014794891.wav,Q1,73.41625661100261,None,73.39896284379066,85.4174204969313,[0.04375],[0.12875],[1],[0],[0],[19.163529376033694],0.001818964839912951,None,92.57075966894627,None,,,03_02,001,2023_Feb_16_1556,musicemotionlatency,2021.2.3,121.54635162751968,
6,0,6,0,,,../fMRI_stim/music/Q3/MT0009437817.wav,Q4,94.94659513700753,None,94.93045232207514,None,[0.11125],[-0.2475],[1],[0],[0],[4.0809941010084],0.0040828632190823555,None,99.02017241797876,None,,,03_02,001,2023_Feb_16_1556,musicemotionlatency,2021.2.3,121.54635162751968,
7,0,7,0,,,../fMRI_stim/music/Q3/MT0003435704.wav,Q3,101.44144424097613,None,101.42707187262131,113.43919091497082,[-0.10625],[-0.195],[1],[0],[0],[13.011759439017624],0.004350052680820227,None,114.44525056099519,None,,,03_02,001,2023_Feb_16_1556,musicemotionlatency,2021.2.3,121.54635162751968,
8,0,8,0,,,../fMRI_stim/music/Q2/MT0010897525.wav,Q2,116.81952068093233,None,116.80302369205747,None,[-0.06],[0.1],[1],[0],[0],[6.925459518097341],0.0015371640911325812,None,123.73797758796718,None,,,03_02,001,2023_Feb_16_1556,musicemotionlatency,2021.2.3,121.54635162751968,
9,0,9,0,,,../fMRI_stim/music/Q1/MT0011574534.wav,Q1,126.15352937497664,None,126.13509538059589,None,[0.125],[0.09375],[1],[0],[0],[3.8127318989718333],0.002055365708656609,None,129.95533359399997,None,,,03_02,001,2023_Feb_16_1556,musicemotionlatency,2021.2.3,121.54635162751968,
10,0,10,0,,,../fMRI_stim/music/Q4/MT0029080694.wav,Q3,132.35011443297844,None,132.33814584943465,None,[-0.135],[-0.265],[1],[0],[0],[5.015128058032133],0.006347513408400118,None,137.35808288003318,None,,,03_02,001,2023_Feb_16_1556,musicemotionlatency,2021.2.3,121.54635162751968,
11,0,11,0,,,../fMRI_stim/music/Q4/MT0012151268.wav,Q4,139.77603066992015,None,139.7628253026516,None,[0.17875],[-0.13875],[1],[0],[0],[8.287442403961904],0.00438321172259748,None,148.0572449909523,None,,,03_02,001,2023_Feb_16_1556,musicemotionlatency,2021.2.3,121.54635162751968,
12,0,12,0,,,../fMRI_stim/music/Q4/MT0012766840.wav,Q3,150.46753714198712,None,150.45522049745776,None,[-0.05875],[-0.28],[1],[0],[0],[10.991715658106841],0.007746237562969327,None,161.45030293497257,None,,,03_02,001,2023_Feb_16_1556,musicemotionlatency,2021.2.3,121.54635162751968,
13,0,13,0,,,../fMRI_stim/music/Q3/MT0009693151.wav,Q1,163.8405377449235,None,163.82491701833203,None,[0.26125],[0.00625],[0],[0],[1],[1.54114228207618],0.004374044365249574,None,165.3724699629238,None,,,03_02,001,2023_Feb_16_1556,musicemotionlatency,2021.2.3,121.54635162751968,
14,0,14,0,,,../fMRI_stim/music/Q2/MT0010310896.wav,Q2,167.77833142294548,None,167.76035806444705,None,[-0.10625],[0.19625],[1],[0],[0],[8.964440395007841],0.0011615235125645995,None,176.7347279599635,None,,,03_02,001,2023_Feb_16_1556,musicemotionlatency,2021.2.3,121.54635162751968,
15,0,15,0,,,../fMRI_stim/music/Q2/MT0010490157.wav,Q2,179.16321037092712,None,179.14459354766876,None,[-0.05625],[0.13],[1],[0],[0],[4.8482257350115106],0.00035619863774627447,None,184.00292315892875,None,,,03_02,001,2023_Feb_16_1556,musicemotionlatency,2021.2.3,121.54635162751968,
16,0,16,0,,,../fMRI_stim/music/Q1/MT0011786799.wav,Q1,186.39209102198947,None,186.37654322226297,None,[0.2475],[0.17125],[1],[0],[0],[4.541162583976984],0.0024352811742573977,None,190.92706099397037,None,,,03_02,001,2023_Feb_16_1556,musicemotionlatency,2021.2.3,121.54635162751968,
17,0,17,0,,,../fMRI_stim/music/Q1/MT0026795261.wav,Q1,193.34923833492212,None,193.32877809554338,None,[0.19],[0.13],[1],[0],[0],[9.503934556967579],0.001014193519949913,None,202.84297957702074,None,,,03_02,001,2023_Feb_16_1556,musicemotionlatency,2021.2.3,121.54635162751968,
18,0,18,0,,,../fMRI_stim/music/Q3/MT0001515531.wav,Q4,205.2300480939448,None,205.21563719635594,None,[0.1575],[-0.0925],[1],[0],[0],[10.19191886507906],0.0032974642235785723,None,215.4159096169751,None,,,03_02,001,2023_Feb_16_1556,musicemotionlatency,2021.2.3,121.54635162751968,
19,0,19,0,,,../fMRI_stim/music/Q4/MT0004833310.wav,Q3,217.7947824129369,None,217.77954804226755,229.78642900800332,[-0.03625],[-0.1325],[1],[0],[0],[13.74547965102829],0.004795067245140672,None,231.53173974296078,None,,,03_02,001,2023_Feb_16_1556,musicemotionlatency,2021.2.3,121.54635162751968,
20,0,20,0,,,../fMRI_stim/music/Q2/MT0004942017.wav,Q1,233.91856882197317,None,233.9060960233095,None,[0.1325],[0.1325],[1],[0],[0],[7.098020786070265],0.005274101393297315,None,241.0112855680054,None,,,03_02,001,2023_Feb_16_1556,musicemotionlatency,2021.2.3,121.54635162751968,
21,0,21,0,,,../fMRI_stim/music/Q1/MT0011930865.wav,Q1,243.45149801496882,None,243.43086622676344,None,[0.24],[0.16],[1],[0],[0],[2.3466334079857916],0.00041390780825167894,None,245.79947823099792,None,,,03_02,001,2023_Feb_16_1556,musicemotionlatency,2021.2.3,121.54635162751968,
22,0,22,0,,,../fMRI_stim/music/Q2/MT0026520343.wav,Q2,248.17939980200026,None,248.16977752516976,None,[-0.16375],[0.14],[0],[0],[1],[10.552327211014926],0.007335638045333326,None,258.72757929901127,None,,,03_02,001,2023_Feb_16_1556,musicemotionlatency,2021.2.3,121.54635162751968,
23,0,23,0,,,../fMRI_stim/music/Q3/MT0009220462.wav,Q3,261.1172026899876,None,261.1075094252941,None,[-0.14625],[-0.145],[1],[0],[0],[9.38461924600415],0.007435371284373105,None,270.4970827369252,None,,,03_02,001,2023_Feb_16_1556,musicemotionlatency,2021.2.3,121.54635162751968,
,,,,,,,,,,,,,,,,,,,,,,272.50140879594255,None,,,,,,,
