trials.thisRepN,trials.thisTrialN,trials.thisN,trials.thisIndex,starttext.started,starttext.stopped,music.id,Quadrants.id,russellsQuad.started,russellsQuad.stopped,music.started,music.stopped,mouse.x,mouse.y,mouse.leftButton,mouse.midButton,mouse.rightButton,mouse.time,mouse.started,mouse.stopped,fixCross.started,fixCross.stopped,goodbyetext.started,goodbyetext.stopped,participant,session,date,expName,psychopyVersion,frameRate,
0,0,0,0,29.493073375000677,None,../fMRI_stim/music/Q2/MT0011145388.wav,Q1,32.00403090400505,None,31.926756198004295,43.93576163700345,[0.02375],[0.105],[1],[0],[0],[12.640018113001133],0.0019751059953705408,None,44.575814708005055,None,,,06_03,001,2023_Mar_24_1602,musicemotionlatency,2021.2.3,121.2415248521794,
1,0,1,0,,,../fMRI_stim/music/Q2/MT0028750297.wav,Q1,47.01375987400388,None,47.006596971003454,59.02176195799984,[0.01625],[0.16],[1],[0],[0],[15.757133988998248],0.007643573007953819,None,62.76811047299998,None,,,06_03,001,2023_Mar_24_1602,musicemotionlatency,2021.2.3,121.2415248521794,
2,0,2,0,,,../fMRI_stim/music/Q3/MT0026905937.wav,Q4,65.21925463200023,None,65.20846730299964,77.2230520660014,[0.0275],[-0.0625],[1],[0],[0],[18.5542962430045],0.0056787859939504415,None,83.76863609300199,None,,,06_03,001,2023_Mar_24_1602,musicemotionlatency,2021.2.3,121.2415248521794,
3,0,3,0,,,../fMRI_stim/music/Q4/MT0010818060.wav,Q4,86.2038168670042,None,86.19336225400329,98.20957740599988,[0.07125],[-0.0875],[1],[0],[0],[15.441564207998454],0.006265949996304698,None,101.6411662410028,None,,,06_03,001,2023_Mar_24_1602,musicemotionlatency,2021.2.3,121.2415248521794,
4,0,4,0,,,../fMRI_stim/music/Q2/MT0011348776.wav,Q1,104.06521560600231,None,104.0500609070048,116.0649918420022,[0.065],[0.185],[1],[0],[0],[12.31859352200263],0.0014298550013336353,None,116.37904144900676,None,,,06_03,001,2023_Mar_24_1602,musicemotionlatency,2021.2.3,121.2415248521794,
5,0,5,0,,,../fMRI_stim/music/Q4/MT0012862507.wav,Q1,119.09066417000577,None,119.07779487700172,131.0918778330015,[0.12375],[0.12375],[1],[0],[0],[12.445409088002634],0.004886828995950054,None,131.53171049400407,None,,,06_03,001,2023_Mar_24_1602,musicemotionlatency,2021.2.3,121.2415248521794,
6,0,6,0,,,../fMRI_stim/music/Q4/MT0012151268.wav,Q1,133.9852027760062,None,133.9757015590003,145.99832067200623,[0.12125],[0.09625],[1],[0],[0],[12.52490131399827],0.008148380999045912,None,146.5055194020024,None,,,06_03,001,2023_Mar_24_1602,musicemotionlatency,2021.2.3,121.2415248521794,
7,0,7,0,,,../fMRI_stim/music/Q2/MT0002960683.wav,Q1,148.95182272200327,None,148.93933093400412,160.95418006500404,[0.095],[0.26625],[1],[0],[0],[55.456960822994006],0.003221931001462508,None,204.40527354200458,None,,,06_03,001,2023_Mar_24_1602,musicemotionlatency,2021.2.3,121.2415248521794,
8,0,8,0,,,../fMRI_stim/music/Q1/MT0011957429.wav,Q1,206.85622539000178,None,206.84665415800555,None,[0.13],[0.055],[1],[0],[0],[8.03307763099292],0.007528854999691248,None,214.8846241390056,None,,,06_03,001,2023_Mar_24_1602,musicemotionlatency,2021.2.3,121.2415248521794,
9,0,9,0,,,../fMRI_stim/music/Q1/MT0011786799.wav,Q1,217.32970371300325,None,217.3134955230038,None,[0.07125],[0.0875],[1],[0],[0],[10.645853409005213],0.005031617998611182,None,227.96647771000426,None,,,06_03,001,2023_Mar_24_1602,musicemotionlatency,2021.2.3,121.2415248521794,
10,0,10,0,,,../fMRI_stim/music/Q4/MT0030494794.wav,Q4,230.4221288770059,None,230.40486845200505,242.42178351800248,[0.04875],[-0.245],[1],[0],[0],[15.862262322996685],0.0007622169941896573,None,246.27857621200383,None,,,06_03,001,2023_Mar_24_1602,musicemotionlatency,2021.2.3,121.2415248521794,
11,0,11,0,,,../fMRI_stim/music/Q3/MT0009437817.wav,Q1,248.7029781040037,None,248.6912445850001,260.70184252100444,[0.0325],[0.01875],[1],[0],[0],[12.819206876993121],0.005538143996091094,None,261.5176647930057,None,,,06_03,001,2023_Mar_24_1602,musicemotionlatency,2021.2.3,121.2415248521794,
12,0,12,0,,,../fMRI_stim/music/Q3/MT0010375510.wav,Q4,263.93727064200357,None,263.92167929500283,None,[0.12625],[-0.035],[1],[0],[0],[9.186089768001693],0.0004543719987850636,None,273.1188612170008,None,,,06_03,001,2023_Mar_24_1602,musicemotionlatency,2021.2.3,121.2415248521794,
13,0,13,0,,,../fMRI_stim/music/Q3/MT0010739708.wav,Q4,275.5610019060041,None,275.5476428640017,287.55916527700174,[0.03625],[-0.10625],[1],[0],[0],[12.63994209500379],0.003966807002143469,None,288.1942734250042,None,,,06_03,001,2023_Mar_24_1602,musicemotionlatency,2021.2.3,121.2415248521794,
14,0,14,0,,,../fMRI_stim/music/Q1/MT0009845276.wav,Q1,290.61423749000096,None,290.59805778500595,None,[0.06125],[0.0675],[1],[0],[0],[9.533312489002128],0.00016385000344598666,None,300.14218749700376,None,,,06_03,001,2023_Mar_24_1602,musicemotionlatency,2021.2.3,121.2415248521794,
15,0,15,0,,,../fMRI_stim/music/Q2/MT0008530072.wav,Q1,302.56993244700425,None,302.55394673800475,314.55918384700635,[0.02375],[0.25],[1],[0],[0],[12.761657101997116],0.0012420890052453615,None,315.32538053100143,None,,,06_03,001,2023_Mar_24_1602,musicemotionlatency,2021.2.3,121.2415248521794,
16,0,16,0,,,../fMRI_stim/music/Q3/MT0007610380.wav,Q2,317.76257351000095,None,317.7544814990019,None,[-0.035],[0.02],[1],[0],[0],[9.848989164995146],0.007938256007037126,None,327.60725861500396,None,,,06_03,001,2023_Mar_24_1602,musicemotionlatency,2021.2.3,121.2415248521794,
17,0,17,0,,,../fMRI_stim/music/Q4/MT0012941049.wav,Q1,330.03330168400134,None,330.0202661370029,342.0377958490062,[0.1575],[0.0575],[1],[0],[0],[12.463337836001301],0.005472816003020853,None,342.4898450050023,None,,,06_03,001,2023_Mar_24_1602,musicemotionlatency,2021.2.3,121.2415248521794,
18,0,18,0,,,../fMRI_stim/music/Q4/MT0001624303.wav,Q4,344.9137230270062,None,344.8985523280033,356.912118803004,[0.04875],[-0.08],[1],[0],[0],[12.297298475998105],0.0012901890004286543,None,357.20586432700657,None,,,06_03,001,2023_Mar_24_1602,musicemotionlatency,2021.2.3,121.2415248521794,
19,0,19,0,,,../fMRI_stim/music/Q3/MT0001871732.wav,Q1,359.6190388230025,None,359.6079852740004,371.6252965080057,[0.2125],[0.08375],[1],[0],[0],[12.583374191002804],0.005694554994988721,None,372.19831009500194,None,,,06_03,001,2023_Mar_24_1602,musicemotionlatency,2021.2.3,121.2415248521794,
20,0,20,0,,,../fMRI_stim/music/Q1/MT0012041920.wav,Q1,374.6151001680046,None,374.6047776560008,None,[0.065],[0.14625],[1],[0],[0],[10.72481689700362],0.006825917997048236,None,385.33425475000695,None,,,06_03,001,2023_Mar_24_1602,musicemotionlatency,2021.2.3,121.2415248521794,
21,0,21,0,,,../fMRI_stim/music/Q1/MT0002262181.wav,Q1,387.75453087200003,None,387.7367804970054,399.7487150700035,[0.155],[0.15125],[1],[0],[0],[12.32339457800117],0.0018638789988472126,None,400.06967280700337,None,,,06_03,001,2023_Mar_24_1602,musicemotionlatency,2021.2.3,121.2415248521794,
22,0,22,0,,,../fMRI_stim/music/Q1/MT0029065626.wav,Q1,402.49129095399985,None,402.479442036002,414.4911402200014,[0.22],[0.25875],[1],[0],[0],[12.41576123500272],0.0045130739963497035,None,414.9291190180011,None,,,06_03,001,2023_Mar_24_1602,musicemotionlatency,2021.2.3,121.2415248521794,
23,0,23,0,,,../fMRI_stim/music/Q2/MT0010490157.wav,Q1,417.33343825400516,None,417.319674860005,429.33562879100646,[0.00375],[0.265],[1],[0],[0],[12.36765735699737],0.002627842994115781,None,429.6967979800029,None,,,06_03,001,2023_Mar_24_1602,musicemotionlatency,2021.2.3,121.2415248521794,
,,,,,,,,,,,,,,,,,,,,,,431.71090203000495,None,,,,,,,
