trials.thisRepN,trials.thisTrialN,trials.thisN,trials.thisIndex,starttext.started,starttext.stopped,music.id,Quadrants.id,russellsQuad.started,russellsQuad.stopped,music.started,music.stopped,mouse.x,mouse.y,mouse.leftButton,mouse.midButton,mouse.rightButton,mouse.time,mouse.started,mouse.stopped,fixCross.started,fixCross.stopped,goodbyetext.started,goodbyetext.stopped,participant,session,date,expName,psychopyVersion,frameRate,
0,0,0,0,16.00749689299846,None,../fMRI_stim/music/Q2/MT0000456939.wav,Q2,18.477774986007717,None,18.427572523010895,None,[-0.25625],[0.30875],[1],[0],[0],[5.473471942998003],0.0006035050028003752,None,23.91044529399369,None,,,07_s02,001,2023_Feb_06_1601,musicemotionlatency,2021.2.3,119.82936734527547,
1,0,1,0,,,../fMRI_stim/music/Q2/MT0002415184.wav,Q2,26.248647030966822,None,26.2356664250372,None,[-0.085],[0.24875],[1],[0],[0],[6.934274089988321],0.0028816150152124465,None,33.179368196986616,None,,,07_s02,001,2023_Feb_06_1601,musicemotionlatency,2021.2.3,119.82936734527547,
2,0,2,0,,,../fMRI_stim/music/Q2/MT0011975274.wav,Q2,35.5725670660031,None,35.559487509017345,None,[-0.125],[0.19],[1],[0],[0],[4.992554831027519],0.0049829320050776005,None,40.57062887499342,None,,,07_s02,001,2023_Feb_06_1601,musicemotionlatency,2021.2.3,119.82936734527547,
3,0,3,0,,,../fMRI_stim/music/Q3/MT0011308097.wav,Q3,42.99434722797014,None,42.98239599205554,None,[-0.1875],[-0.05875],[1],[0],[0],[8.5529420900275],0.005775768018793315,None,51.54241325898329,None,,,07_s02,001,2023_Feb_06_1601,musicemotionlatency,2021.2.3,119.82936734527547,
4,0,4,0,,,../fMRI_stim/music/Q2/MT0009421924.wav,Q2,53.9336748420028,None,53.91579298302531,None,[-0.2475],[0.30875],[1],[0],[0],[7.320429842045996],0.0017913010087795556,None,61.24681700399378,None,,,07_s02,001,2023_Feb_06_1601,musicemotionlatency,2021.2.3,119.82936734527547,
5,0,5,0,,,../fMRI_stim/music/Q3/MT0028947009.wav,Q2,63.653257002995815,None,63.63396193702938,75.64233053900534,[-0.1725],[0.0325],[1],[0],[0],[15.824126454012003],3.1899078749120235e-05,None,79.47088646597695,None,,,07_s02,001,2023_Feb_06_1601,musicemotionlatency,2021.2.3,119.82936734527547,
6,0,6,0,,,../fMRI_stim/music/Q3/MT0001526386.wav,Q3,81.86126615497051,None,81.84590898902388,None,[-0.22],[-0.0675],[1],[0],[0],[11.5935287939501],0.0019241290865465999,None,93.44973632099573,None,,,07_s02,001,2023_Feb_06_1601,musicemotionlatency,2021.2.3,119.82936734527547,
7,0,7,0,,,../fMRI_stim/music/Q3/MT0008841966.wav,Q3,95.84428792196559,None,95.83031556202332,None,[-0.21],[-0.07],[1],[0],[0],[10.179859708994627],0.005034006026107818,None,106.01819009595783,None,,,07_s02,001,2023_Feb_06_1601,musicemotionlatency,2021.2.3,119.82936734527547,
8,0,8,0,,,../fMRI_stim/music/Q1/MT0002119439.wav,Q1,108.39694401499582,None,108.3836929299985,None,[0.17375],[0.22],[1],[0],[0],[6.666011545981746],0.004485703946556896,None,115.05814705800731,None,,,07_s02,001,2023_Feb_06_1601,musicemotionlatency,2021.2.3,119.82936734527547,
9,0,9,0,,,../fMRI_stim/music/Q1/MT0029874624.wav,Q1,117.48178254498634,None,117.46756121802609,None,[0.085],[0.2175],[1],[0],[0],[7.878085218952037],0.004442235978785902,None,125.35587829595897,None,,,07_s02,001,2023_Feb_06_1601,musicemotionlatency,2021.2.3,119.82936734527547,
10,0,10,0,,,../fMRI_stim/music/Q1/MT0000442827.wav,Q1,127.78750462498283,None,127.77736308303429,None,[0.215],[0.23875],[1],[0],[0],[5.236180841980968],0.007604212034493685,None,133.01924204599345,None,,,07_s02,001,2023_Feb_06_1601,musicemotionlatency,2021.2.3,119.82936734527547,
11,0,11,0,,,../fMRI_stim/music/Q4/MT0011886148.wav,Q4,135.43855299399002,None,135.4232793090283,None,[0.20875],[-0.09125],[1],[0],[0],[7.1828090120106936],0.003295211005024612,None,142.6175803919905,None,,,07_s02,001,2023_Feb_06_1601,musicemotionlatency,2021.2.3,119.82936734527547,
12,0,12,0,,,../fMRI_stim/music/Q4/MT0001494812.wav,Q4,145.02914450800745,None,145.01720908903516,None,[0.19375],[-0.0975],[1],[0],[0],[10.085098905023187],0.005240037979092449,None,155.1229595419718,None,,,07_s02,001,2023_Feb_06_1601,musicemotionlatency,2021.2.3,119.82936734527547,
13,0,13,0,,,../fMRI_stim/music/Q3/MT0001673884.wav,Q3,157.513540386979,None,157.49950859404635,169.50968871096848,[-0.18875],[-0.07375],[1],[0],[0],[13.308731802972034],0.003269519074819982,None,170.81683826399967,None,,,07_s02,001,2023_Feb_06_1601,musicemotionlatency,2021.2.3,119.82936734527547,
14,0,14,0,,,../fMRI_stim/music/Q4/MT0013676763.wav,Q1,173.202378735994,None,173.18305499602573,None,[0.2025],[0.19125],[1],[0],[0],[2.738941979012452],0.0004535120679065585,None,175.9324120049714,None,,,07_s02,001,2023_Feb_06_1601,musicemotionlatency,2021.2.3,119.82936734527547,
15,0,15,0,,,../fMRI_stim/music/Q1/MT0010900969.wav,Q1,178.31660552998073,None,178.3022053630091,None,[0.22125],[0.265],[1],[0],[0],[9.440126535017043],0.0025373089592903852,None,187.75172926700907,None,,,07_s02,001,2023_Feb_06_1601,musicemotionlatency,2021.2.3,119.82936734527547,
16,0,16,0,,,../fMRI_stim/music/Q1/MT0012846850.wav,Q1,190.1341188439983,None,190.11609270803163,None,[0.2025],[0.23625],[1],[0],[0],[2.731855265039485],0.001138037070631981,None,192.87057428300614,None,,,07_s02,001,2023_Feb_06_1601,musicemotionlatency,2021.2.3,119.82936734527547,
17,0,17,0,,,../fMRI_stim/music/Q3/MT0000300896.wav,Q4,195.3092370099621,None,195.2925035530352,207.3012346989708,[0.17875],[-0.09125],[1],[0],[0],[14.274490260053426],0.0019210240570828319,None,209.58909593796125,None,,,07_s02,001,2023_Feb_06_1601,musicemotionlatency,2021.2.3,119.82936734527547,
18,0,18,0,,,../fMRI_stim/music/Q4/MT0031495046.wav,Q4,211.95172947499668,None,211.93264547402504,None,[0.18125],[-0.06125],[1],[0],[0],[8.19187346403487],0.0005743060610257089,None,220.13671093195444,None,,,07_s02,001,2023_Feb_06_1601,musicemotionlatency,2021.2.3,119.82936734527547,
19,0,19,0,,,../fMRI_stim/music/Q4/MT0001195535.wav,Q4,222.5444224239909,None,222.52963730504268,None,[0.18125],[-0.07125],[1],[0],[0],[9.919779052957892],0.002917981066275388,None,232.47266210400267,None,,,07_s02,001,2023_Feb_06_1601,musicemotionlatency,2021.2.3,119.82936734527547,
20,0,20,0,,,../fMRI_stim/music/Q2/MT0002372242.wav,Q2,234.8814774620114,None,234.8654345550225,None,[-0.11125],[0.24125],[1],[0],[0],[6.158036364999134],0.0026116250664927065,None,241.0355136069702,None,,,07_s02,001,2023_Feb_06_1601,musicemotionlatency,2021.2.3,119.82936734527547,
21,0,21,0,,,../fMRI_stim/music/Q2/MT0029772184.wav,Q2,243.45604791096412,None,243.44032768802717,None,[-0.13125],[0.2325],[1],[0],[0],[3.580147359985858],0.0030024549923837185,None,247.03005242400104,None,,,07_s02,001,2023_Feb_06_1601,musicemotionlatency,2021.2.3,119.82936734527547,
22,0,22,0,,,../fMRI_stim/music/Q1/MT0001898830.wav,Q1,249.44399867998436,None,249.43067214104812,None,[0.2175],[0.19125],[1],[0],[0],[6.21256098599406],0.0037923650816082954,None,255.65207904297858,None,,,07_s02,001,2023_Feb_06_1601,musicemotionlatency,2021.2.3,119.82936734527547,
23,0,23,0,,,../fMRI_stim/music/Q4/MT0000336135.wav,Q1,258.06994318100624,None,258.0515198100125,270.05563460697886,[0.29125],[0.10125],[1],[0],[0],[14.181240841979161],0.001963357033673674,None,272.24185445095645,None,,,07_s02,001,2023_Feb_06_1601,musicemotionlatency,2021.2.3,119.82936734527547,
,,,,,,,,,,,,,,,,,,,,,,274.24636820697924,None,,,,,,,
