trials.thisRepN,trials.thisTrialN,trials.thisN,trials.thisIndex,starttext.started,starttext.stopped,music.id,Quadrants.id,russellsQuad.started,russellsQuad.stopped,music.started,music.stopped,mouse.x,mouse.y,mouse.leftButton,mouse.midButton,mouse.rightButton,mouse.time,mouse.started,mouse.stopped,fixCross.started,fixCross.stopped,goodbyetext.started,goodbyetext.stopped,participant,session,date,expName,psychopyVersion,frameRate,
0,0,0,0,27.26352992899774,None,../fMRI_stim/music/Q1/MT0011104152.wav,Q1,29.71277069200005,None,29.669831965666766,None,[0.25047619047619046],[0.26857142857142857],[1],[0],[0],[8.028657283997745],0.011453641665866598,None,37.702173537996714,None,,,08_02,001,2023_Mar_27_1121,musicemotionlatency,2021.2.3,None,
1,0,1,0,,,../fMRI_stim/music/Q2/MT0011259078.wav,Q1,40.09374076799577,None,40.08356198232844,52.08951693899871,[0.16952380952380952],[0.2257142857142857],[1],[0],[0],[16.17162203299813],0.013250849326141179,None,56.25838057499641,None,,,08_02,001,2023_Mar_27_1121,musicemotionlatency,2021.2.3,None,
2,0,2,0,,,../fMRI_stim/music/Q1/MT0004122617.wav,Q1,58.81015525099792,None,58.79028900332972,None,[0.22952380952380952],[0.24761904761904763],[1],[0],[0],[11.749154692995944],0.007298385331523605,None,70.54931604599551,None,,,08_02,001,2023_Mar_27_1121,musicemotionlatency,2021.2.3,None,
3,0,3,0,,,../fMRI_stim/music/Q4/MT0004584067.wav,Q3,73.06103904699557,None,73.03588860500167,85.05621036999946,[-0.15428571428571428],[-0.09428571428571429],[1],[0],[0],[14.440714962001948],0.0015974130074027926,None,87.49284165599965,None,,,08_02,001,2023_Mar_27_1121,musicemotionlatency,2021.2.3,None,
4,0,4,0,,,../fMRI_stim/music/Q4/MT0012888230.wav,Q1,90.05338115400082,None,90.03996711899963,102.0633016110005,[0.26095238095238094],[0.13238095238095238],[1],[0],[0],[15.883957823003584],0.013454563006234821,None,105.93064490499819,None,,,08_02,001,2023_Mar_27_1121,musicemotionlatency,2021.2.3,None,
5,0,5,0,,,../fMRI_stim/music/Q1/MT0012331779.wav,Q1,108.44948921999458,None,108.43651312366661,120.44624947999546,[0.09523809523809523],[0.2438095238095238],[1],[0],[0],[12.596368787002575],0.01279865166725358,None,121.03668786399794,None,,,08_02,001,2023_Mar_27_1121,musicemotionlatency,2021.2.3,None,
6,0,6,0,,,../fMRI_stim/music/Q2/MT0034694413.wav,Q2,123.5355615879962,None,123.5140027263294,None,[-0.27714285714285714],[0.29904761904761906],[1],[0],[0],[6.329562803999579],0.004027557333756704,None,129.8568389649954,None,,,08_02,001,2023_Mar_27_1121,musicemotionlatency,2021.2.3,None,
7,0,7,0,,,../fMRI_stim/music/Q4/MT0000235880.wav,Q4,132.44360373399832,None,132.4232153976637,144.44164158000058,[0.19904761904761906],[-0.10380952380952381],[1],[0],[0],[12.464254675993288],0.008655690660816617,None,144.89564416299982,None,,,08_02,001,2023_Mar_27_1121,musicemotionlatency,2021.2.3,None,
8,0,8,0,,,../fMRI_stim/music/Q4/MT0011895175.wav,Q2,147.441766887001,None,147.41286962666734,159.4430466039994,[-0.05619047619047619],[0.2257142857142857],[1],[0],[0],[19.194857215006778],0.0016419356761616655,None,166.62017940499936,None,,,08_02,001,2023_Mar_27_1121,musicemotionlatency,2021.2.3,None,
9,0,9,0,,,../fMRI_stim/music/Q3/MT0003402538.wav,Q3,168.94959158200072,None,168.930844361662,180.9419517130009,[-0.0980952380952381],[-0.06380952380952382],[1],[0],[0],[21.4583005759996],0.0067921596637461334,None,190.40854083799786,None,,,08_02,001,2023_Mar_27_1121,musicemotionlatency,2021.2.3,None,
10,0,10,0,,,../fMRI_stim/music/Q1/MT0000414517.wav,Q1,192.72135580600298,None,192.6992808119947,204.73041262000334,[0.1619047619047619],[0.24476190476190476],[1],[0],[0],[12.757335368994973],0.002610108000226319,None,205.47837457999412,None,,,08_02,001,2023_Mar_27_1121,musicemotionlatency,2021.2.3,None,
11,0,11,0,,,../fMRI_stim/music/Q4/MT0013176970.wav,Q4,208.70309739799995,None,208.6798474059935,220.72323295800015,[0.1457142857142857],[-0.0838095238095238],[1],[0],[0],[68.5095439269935],0.009828103982727043,None,277.20571445999667,None,,,08_02,001,2023_Mar_27_1121,musicemotionlatency,2021.2.3,None,
12,0,12,0,,,../fMRI_stim/music/Q4/MT0034160981.wav,Q1,279.9080900620029,None,279.8852071769972,291.90443639199657,[0.26476190476190475],[0.18285714285714286],[1],[0],[0],[17.827244628992048],0.0040980990015668795,None,297.7327616219991,None,,,08_02,001,2023_Mar_27_1121,musicemotionlatency,2021.2.3,None,
13,0,13,0,,,../fMRI_stim/music/Q3/MT0000299291.wav,Q2,300.42266089499753,None,300.40883382233636,None,[-0.2866666666666667],[0.28285714285714286],[1],[0],[0],[9.830881567002507],0.013125554338330403,None,310.2511493329948,None,,,08_02,001,2023_Mar_27_1121,musicemotionlatency,2021.2.3,None,
14,0,14,0,,,../fMRI_stim/music/Q2/MT0004867185.wav,Q1,312.92837497500295,None,312.9174238623372,324.9463001309923,[0.03428571428571429],[0.19333333333333333],[1],[0],[0],[17.86809480599186],0.015672008332330734,None,330.7897113069921,None,,,08_02,001,2023_Mar_27_1121,musicemotionlatency,2021.2.3,None,
15,0,15,0,,,../fMRI_stim/music/Q2/MT0000441552.wav,Q2,333.47644435599796,None,333.4589616303264,None,[-0.2980952380952381],[0.2542857142857143],[1],[0],[0],[9.350100281008054],0.013895068317651749,None,342.8154293379921,None,,,08_02,001,2023_Mar_27_1121,musicemotionlatency,2021.2.3,None,
16,0,16,0,,,../fMRI_stim/music/Q3/MT0010468178.wav,Q3,345.7905047109962,None,345.7658165439963,None,[-0.2752380952380952],[-0.18666666666666668],[1],[0],[0],[11.668878790005692],0.0025985789980040863,None,357.45304907500395,None,,,08_02,001,2023_Mar_27_1121,musicemotionlatency,2021.2.3,None,
17,0,17,0,,,../fMRI_stim/music/Q1/MT0033841575.wav,Q1,360.2124005229998,None,360.1910774889984,372.2033998410043,[0.09047619047619047],[0.27714285714285714],[1],[0],[0],[20.258786521997536],0.008492459994158708,None,380.4631386300025,None,,,08_02,001,2023_Mar_27_1121,musicemotionlatency,2021.2.3,None,
18,0,18,0,,,../fMRI_stim/music/Q2/MT0009601423.wav,Q2,383.1677487739944,None,383.1448126573368,None,[-0.27904761904761904],[0.31238095238095237],[1],[0],[0],[6.262524267003755],0.01236097734363284,None,389.4149482310022,None,,,08_02,001,2023_Mar_27_1121,musicemotionlatency,2021.2.3,None,
19,0,19,0,,,../fMRI_stim/music/Q3/MT0033345959.wav,Q4,392.1002095869917,None,392.0807387846677,404.0877192649932,[0.1180952380952381],[-0.11333333333333333],[1],[0],[0],[16.64876365599048],0.007086561672622338,None,408.7462177559937,None,,,08_02,001,2023_Mar_27_1121,musicemotionlatency,2021.2.3,None,
20,0,20,0,,,../fMRI_stim/music/Q3/MT0010850805.wav,Q4,411.4242273730051,None,411.40159687365906,423.4274354549998,[0.23333333333333334],[-0.17047619047619048],[1],[0],[0],[12.318383151010494],0.00447310067829676,None,423.7356284510024,None,,,08_02,001,2023_Mar_27_1121,musicemotionlatency,2021.2.3,None,
21,0,21,0,,,../fMRI_stim/music/Q3/MT0008979040.wav,Q1,426.3991105489986,None,426.38477896266943,438.4116379670013,[0.10476190476190476],[0.16],[1],[0],[0],[17.411199198002578],0.012099763669539243,None,443.80417752900394,None,,,08_02,001,2023_Mar_27_1121,musicemotionlatency,2021.2.3,None,
22,0,22,0,,,../fMRI_stim/music/Q1/MT0011997914.wav,Q1,446.48406460699334,None,446.4574635826672,458.4787307689985,[0.05047619047619047],[0.11428571428571428],[1],[0],[0],[13.875645391992293],0.0013513666635844857,None,460.3754915949976,None,,,08_02,001,2023_Mar_27_1121,musicemotionlatency,2021.2.3,None,
23,0,23,0,,,../fMRI_stim/music/Q2/MT0011413068.wav,Q1,463.098781527995,None,463.07689783366317,475.09210280400293,[0.05523809523809524],[0.20666666666666667],[1],[0],[0],[16.025530826998875],0.009806661662878469,None,479.11247165099485,None,,,08_02,001,2023_Mar_27_1121,musicemotionlatency,2021.2.3,None,
,,,,,,,,,,,,,,,,,,,,,,481.14045818999875,None,,,,,,,
