trials.thisRepN,trials.thisTrialN,trials.thisN,trials.thisIndex,starttext.started,starttext.stopped,music.id,Quadrants.id,russellsQuad.started,russellsQuad.stopped,music.started,music.stopped,mouse.x,mouse.y,mouse.leftButton,mouse.midButton,mouse.rightButton,mouse.time,mouse.started,mouse.stopped,fixCross.started,fixCross.stopped,goodbyetext.started,goodbyetext.stopped,participant,session,date,expName,psychopyVersion,frameRate,
0,0,0,0,21.421192484005587,None,../fMRI_stim/music/Q4/MT0011376343.wav,Q1,23.92683342899545,None,23.873179797686557,None,[0.2523809523809524],[0.07142857142857142],[1],[0],[0],[4.722357327991631],0.00996722566196695,None,28.607754499011207,None,,,10_02,001,2023_Apr_05_1113,musicemotionlatency,2021.2.3,63.20437204408044,
1,0,1,0,,,../fMRI_stim/music/Q2/MT0005029328.wav,Q2,31.196518304001074,None,31.187085850329215,None,[-0.25333333333333335],[0.3019047619047619],[1],[0],[0],[10.676448374986649],0.014913650345988572,None,41.870392297016224,None,,,10_02,001,2023_Apr_05_1113,musicemotionlatency,2021.2.3,63.20437204408044,
2,0,2,0,,,../fMRI_stim/music/Q3/MT0001844620.wav,Q3,44.402196184004424,None,44.39341528734852,None,[-0.12666666666666668],[-0.23904761904761904],[1],[0],[0],[5.855945625982713],0.015767629316542298,None,50.251375908002956,None,,,10_02,001,2023_Apr_05_1113,musicemotionlatency,2021.2.3,63.20437204408044,
3,0,3,0,,,../fMRI_stim/music/Q3/MT0008399774.wav,Q3,52.82800291001331,None,52.81705332668304,None,[-0.03238095238095238],[-0.2761904761904762],[1],[0],[0],[9.581220297986874],0.013911837682826445,None,62.40156320101232,None,,,10_02,001,2023_Apr_05_1113,musicemotionlatency,2021.2.3,63.20437204408044,
4,0,4,0,,,../fMRI_stim/music/Q2/MT0004447086.wav,Q2,64.96565257202019,None,64.94997575999587,None,[-0.2361904761904762],[0.2885714285714286],[1],[0],[0],[4.928265277994797],0.012510807981016114,None,69.88225675400463,None,,,10_02,001,2023_Apr_05_1113,musicemotionlatency,2021.2.3,63.20437204408044,
5,0,5,0,,,../fMRI_stim/music/Q4/MT0005074629.wav,Q3,72.3867100670177,None,72.37006951399962,None,[-0.0419047619047619],[-0.16476190476190475],[1],[0],[0],[4.686203153018141],0.008017010986804962,None,77.06731265701819,None,,,10_02,001,2023_Apr_05_1113,musicemotionlatency,2021.2.3,63.20437204408044,
6,0,6,0,,,../fMRI_stim/music/Q1/MT0007840454.wav,Q3,79.7164159110107,None,79.69274663235603,None,[-0.06],[-0.2742857142857143],[1],[0],[0],[6.677853237983072],0.008012258331291378,None,86.37847177599906,None,,,10_02,001,2023_Apr_05_1113,musicemotionlatency,2021.2.3,63.20437204408044,
7,0,7,0,,,../fMRI_stim/music/Q3/MT0007477802.wav,Q4,88.85549209901365,None,88.8458805633379,None,[0.16857142857142857],[-0.29714285714285715],[1],[0],[0],[11.868050791992573],0.015606735338224098,None,100.71755719001521,None,,,10_02,001,2023_Apr_05_1113,musicemotionlatency,2021.2.3,63.20437204408044,
8,0,8,0,,,../fMRI_stim/music/Q2/MT0002602057.wav,Q2,103.19788945300388,None,103.1798722686867,None,[-0.23523809523809525],[0.28285714285714286],[1],[0],[0],[5.842908241000259],0.005966412689303979,None,109.03495390401804,None,,,10_02,001,2023_Apr_05_1113,musicemotionlatency,2021.2.3,63.20437204408044,
9,0,9,0,,,../fMRI_stim/music/Q1/MT0010489498.wav,Q1,111.59062111400999,None,111.56956962700933,None,[0.22],[0.18666666666666668],[1],[0],[0],[10.146951718023047],0.0036253629659768194,None,121.72976973000914,None,,,10_02,001,2023_Apr_05_1113,musicemotionlatency,2021.2.3,63.20437204408044,
10,0,10,0,,,../fMRI_stim/music/Q3/MT0003053135.wav,Q3,124.23183259100188,None,124.2080661293546,None,[-0.08666666666666667],[-0.27714285714285714],[0],[0],[1],[9.643389667995507],0.002203087351517752,None,133.86669444700237,None,,,10_02,001,2023_Apr_05_1113,musicemotionlatency,2021.2.3,63.20437204408044,
11,0,11,0,,,../fMRI_stim/music/Q1/MT0002222957.wav,Q1,136.37083671899745,None,136.34711267434955,None,[0.22380952380952382],[0.24571428571428572],[0],[0],[1],[10.77690477098804],0.001319179340498522,None,147.13974207200226,None,,,10_02,001,2023_Apr_05_1113,musicemotionlatency,2021.2.3,63.20437204408044,
12,0,12,0,,,../fMRI_stim/music/Q2/MT0006939177.wav,Q1,149.6682227520214,None,149.6469340636725,161.65774348701234,[0.017142857142857144],[0.2780952380952381],[1],[0],[0],[12.286643594998168],0.0034982836805284023,None,161.9474885929958,None,,,10_02,001,2023_Apr_05_1113,musicemotionlatency,2021.2.3,63.20437204408044,
13,0,13,0,,,../fMRI_stim/music/Q2/MT0009253118.wav,Q2,164.453456526011,None,164.43392132301233,None,[-0.26476190476190475],[0.2752380952380952],[1],[0],[0],[7.890421858988702],0.005624881014227867,None,172.358549830009,None,,,10_02,001,2023_Apr_05_1113,musicemotionlatency,2021.2.3,63.20437204408044,
14,0,14,0,,,../fMRI_stim/music/Q2/MT0008361425.wav,Q2,174.89405497701955,None,174.88034396235213,None,[-0.16476190476190475],[0.2980952380952381],[1],[0],[0],[11.068090335000306],0.010934522346360609,None,185.95498279001913,None,,,10_02,001,2023_Apr_05_1113,musicemotionlatency,2021.2.3,63.20437204408044,
15,0,15,0,,,../fMRI_stim/music/Q4/MT0003778826.wav,Q4,188.47344014100963,None,188.45162008400075,None,[0.22],[-0.28285714285714286],[1],[0],[0],[9.151368067017756],0.002546124975197017,None,197.6180185220146,None,,,10_02,001,2023_Apr_05_1113,musicemotionlatency,2021.2.3,63.20437204408044,
16,0,16,0,,,../fMRI_stim/music/Q3/MT0003601752.wav,Q4,200.14691089000553,None,200.13260628967353,None,[0.04476190476190476],[-0.2819047619047619],[1],[0],[0],[9.478488302993355],0.015104150690604001,None,209.61298758300836,None,,,10_02,001,2023_Apr_05_1113,musicemotionlatency,2021.2.3,63.20437204408044,
17,0,17,0,,,../fMRI_stim/music/Q4/MT0010665248.wav,Q3,212.15039069502382,None,212.1234407996856,224.13750818901462,[-0.04857142857142857],[-0.259047619047619],[1],[0],[0],[15.676659340999322],0.00029354068101383746,None,227.81726492400048,None,,,10_02,001,2023_Apr_05_1113,musicemotionlatency,2021.2.3,63.20437204408044,
18,0,18,0,,,../fMRI_stim/music/Q4/MT0007453719.wav,Q4,230.2769375180069,None,230.2601808950014,242.2730461350002,[0.05238095238095238],[-0.2876190476190476],[1],[0],[0],[13.979529142990941],0.007880710996687412,None,244.2549353420036,None,,,10_02,001,2023_Apr_05_1113,musicemotionlatency,2021.2.3,63.20437204408044,
19,0,19,0,,,../fMRI_stim/music/Q1/MT0003669917.wav,Q4,246.72691540399683,None,246.71782337067222,None,[0.28],[-0.12285714285714286],[1],[0],[0],[11.507508753013099],0.015685341670177877,None,258.2284245720075,None,,,10_02,001,2023_Apr_05_1113,musicemotionlatency,2021.2.3,63.20437204408044,
20,0,20,0,,,../fMRI_stim/music/Q4/MT0001594582.wav,Q4,260.72419451302267,None,260.71350662602345,None,[0.05619047619047619],[-0.19142857142857142],[1],[0],[0],[5.251239014003659],0.014817574003245682,None,265.96716304001166,None,,,10_02,001,2023_Apr_05_1113,musicemotionlatency,2021.2.3,63.20437204408044,
21,0,21,0,,,../fMRI_stim/music/Q1/MT0009378909.wav,Q1,268.49381247902056,None,268.4821131836836,280.50200562001555,[0.28095238095238095],[0.15047619047619049],[1],[0],[0],[14.901628833991708],0.012914407678181306,None,283.3879826590128,None,,,10_02,001,2023_Apr_05_1113,musicemotionlatency,2021.2.3,63.20437204408044,
22,0,22,0,,,../fMRI_stim/music/Q3/MT0006159067.wav,Q3,285.9057981270016,None,285.89771413169024,None,[-0.19238095238095237],[-0.1838095238095238],[1],[0],[0],[10.714319777995115],0.016453965683467686,None,296.6130282820086,None,,,10_02,001,2023_Apr_05_1113,musicemotionlatency,2021.2.3,63.20437204408044,
23,0,23,0,,,../fMRI_stim/music/Q1/MT0004683099.wav,Q1,299.11573765601497,None,299.09711801601225,None,[0.2571428571428571],[0.3076190476190476],[1],[0],[0],[7.221338013012428],0.007897567003965378,None,306.32857770999544,None,,,10_02,001,2023_Apr_05_1113,musicemotionlatency,2021.2.3,63.20437204408044,
,,,,,,,,,,,,,,,,,,,,,,308.3321354990185,None,,,,,,,
