trials.thisRepN,trials.thisTrialN,trials.thisN,trials.thisIndex,starttext.started,starttext.stopped,music.id,Quadrants.id,russellsQuad.started,russellsQuad.stopped,music.started,music.stopped,mouse.x,mouse.y,mouse.leftButton,mouse.midButton,mouse.rightButton,mouse.time,mouse.started,mouse.stopped,fixCross.started,fixCross.stopped,goodbyetext.started,goodbyetext.stopped,participant,session,date,expName,psychopyVersion,frameRate,
0,0,0,0,30.853505749997566,None,../fMRI_stim/music/Q2/MT0028750297.wav,Q3,33.378291893001006,None,33.26568618240563,None,[-0.0675],[-0.10375],[1],[0],[0],[8.549592139002925],0.0014537374081555754,None,41.827429987999494,None,,,11_s3,001,2023_Mar_09_1145,musicemotionlatency,2021.2.3,117.6750738021789,
1,0,1,0,,,../fMRI_stim/music/Q1/MT0012041920.wav,Q1,44.29345039000327,None,44.28358950700567,None,[0.20625],[0.23875],[1],[0],[0],[5.073378537999815],0.0054834580078022555,None,49.36175510299654,None,,,11_s3,001,2023_Mar_09_1145,musicemotionlatency,2021.2.3,117.6750738021789,
2,0,2,0,,,../fMRI_stim/music/Q3/MT0007610380.wav,Q3,51.75198470099713,None,51.74357187420101,None,[-0.04125],[-0.04875],[1],[0],[0],[8.868529863997537],0.0063798101982683875,None,60.617014458002814,None,,,11_s3,001,2023_Mar_09_1145,musicemotionlatency,2021.2.3,117.6750738021789,
3,0,3,0,,,../fMRI_stim/music/Q2/MT0008530072.wav,Q3,63.05232863799756,None,63.03696725520349,None,[-0.03375],[-0.125],[1],[0],[0],[7.792980049998732],0.0032399832052760758,None,70.83669234099943,None,,,11_s3,001,2023_Mar_09_1145,musicemotionlatency,2021.2.3,117.6750738021789,
4,0,4,0,,,../fMRI_stim/music/Q4/MT0012862507.wav,Q4,73.27303483700234,None,73.25708118400507,None,[0.2075],[-0.04375],[1],[0],[0],[7.837737076995836],0.002832048005075194,None,81.10147232600139,None,,,11_s3,001,2023_Mar_09_1145,musicemotionlatency,2021.2.3,117.6750738021789,
5,0,5,0,,,../fMRI_stim/music/Q3/MT0001871732.wav,Q1,83.51272977799817,None,83.49072959240075,None,[0.0175],[0.09],[1],[0],[0],[11.329228025999328],3.2756397558841854e-05,None,94.83129857599852,None,,,11_s3,001,2023_Mar_09_1145,musicemotionlatency,2021.2.3,117.6750738021789,
6,0,6,0,,,../fMRI_stim/music/Q4/MT0030494794.wav,Q3,97.2561516479982,None,97.24000834500475,109.25030632400012,[-0.0525],[-0.16],[1],[0],[0],[12.222439672004839],0.002513509003620129,None,109.47083746599674,None,,,11_s3,001,2023_Mar_09_1145,musicemotionlatency,2021.2.3,117.6750738021789,
7,0,7,0,,,../fMRI_stim/music/Q3/MT0010375510.wav,Q1,111.96246577899728,None,111.94371235940562,None,[0.2275],[0.12625],[1],[0],[0],[7.272583330995985],0.001903240401588846,None,119.22514316099841,None,,,11_s3,001,2023_Mar_09_1145,musicemotionlatency,2021.2.3,117.6750738021789,
8,0,8,0,,,../fMRI_stim/music/Q4/MT0001624303.wav,Q4,121.70203029600088,None,121.69016878520343,None,[0.11625],[-0.07125],[1],[0],[0],[8.465960888002883],0.006693851202726364,None,130.15971506400092,None,,,11_s3,001,2023_Mar_09_1145,musicemotionlatency,2021.2.3,117.6750738021789,
9,0,9,0,,,../fMRI_stim/music/Q2/MT0011348776.wav,Q2,132.6003386739976,None,132.58667660120335,None,[-0.1375],[0.1425],[1],[0],[0],[8.580001956004708],0.006442794205213431,None,141.17127680600242,None,,,11_s3,001,2023_Mar_09_1145,musicemotionlatency,2021.2.3,117.6750738021789,
10,0,10,0,,,../fMRI_stim/music/Q3/MT0010739708.wav,Q3,143.6050780200021,None,143.58937998200417,None,[-0.205],[-0.1925],[1],[0],[0],[10.926095433002047],0.002445874000841286,None,154.52427860700118,None,,,11_s3,001,2023_Mar_09_1145,musicemotionlatency,2021.2.3,117.6750738021789,
11,0,11,0,,,../fMRI_stim/music/Q1/MT0002262181.wav,Q1,156.95762818899675,None,156.94138148820565,None,[0.14],[0.225],[1],[0],[0],[6.192268998005602],0.0033615012071095407,None,163.14040750300046,None,,,11_s3,001,2023_Mar_09_1145,musicemotionlatency,2021.2.3,117.6750738021789,
12,0,12,0,,,../fMRI_stim/music/Q4/MT0012941049.wav,Q4,165.56625092399918,None,165.54754233380007,None,[0.0525],[-0.0525],[1],[0],[0],[9.05273507200036],0.001341543800663203,None,174.60977712600288,None,,,11_s3,001,2023_Mar_09_1145,musicemotionlatency,2021.2.3,117.6750738021789,
13,0,13,0,,,../fMRI_stim/music/Q4/MT0012151268.wav,Q1,177.05432686099812,None,177.03610773820327,None,[0.2425],[0.10375],[1],[0],[0],[7.237622046995966],0.00044891620200360194,None,184.28329554599622,None,,,11_s3,001,2023_Mar_09_1145,musicemotionlatency,2021.2.3,117.6750738021789,
14,0,14,0,,,../fMRI_stim/music/Q1/MT0029065626.wav,Q1,186.73613766900235,None,186.72211245240612,None,[0.225],[0.21625],[1],[0],[0],[6.691068038999219],0.004166699407505803,None,193.43303327500325,None,,,11_s3,001,2023_Mar_09_1145,musicemotionlatency,2021.2.3,117.6750738021789,
15,0,15,0,,,../fMRI_stim/music/Q2/MT0002960683.wav,Q3,195.85993620099907,None,195.8436415460019,207.87175288699655,[-0.115],[-0.15],[1],[0],[0],[12.235922564999782],0.004190765001112595,None,208.08609126100055,None,,,11_s3,001,2023_Mar_09_1145,musicemotionlatency,2021.2.3,117.6750738021789,
16,0,16,0,,,../fMRI_stim/music/Q2/MT0010490157.wav,Q3,210.56262016399705,None,210.54764069420634,None,[-0.07875],[-0.1675],[1],[0],[0],[7.229800347995479],0.004480382202018518,None,217.7832510340013,None,,,11_s3,001,2023_Mar_09_1145,musicemotionlatency,2021.2.3,117.6750738021789,
17,0,17,0,,,../fMRI_stim/music/Q1/MT0009845276.wav,Q1,220.21746763199917,None,220.20543525620377,None,[0.20625],[0.1625],[1],[0],[0],[8.263757079999777],0.0075582852005027235,None,228.47331407699676,None,,,11_s3,001,2023_Mar_09_1145,musicemotionlatency,2021.2.3,117.6750738021789,
18,0,18,0,,,../fMRI_stim/music/Q2/MT0011145388.wav,Q2,230.91207948199735,None,230.89652061620217,None,[-0.16],[0.14375],[1],[0],[0],[7.3655003089952515],0.005419791203166824,None,238.27061762700032,None,,,11_s3,001,2023_Mar_09_1145,musicemotionlatency,2021.2.3,117.6750738021789,
19,0,19,0,,,../fMRI_stim/music/Q1/MT0011786799.wav,Q1,240.70784830299817,None,240.6899220322004,None,[0.21875],[0.2],[1],[0],[0],[5.29147489600291],0.001153401201008819,None,245.99273271700076,None,,,11_s3,001,2023_Mar_09_1145,musicemotionlatency,2021.2.3,117.6750738021789,
20,0,20,0,,,../fMRI_stim/music/Q4/MT0010818060.wav,Q4,248.40269481699943,None,248.38788877060287,None,[0.1125],[-0.16625],[1],[0],[0],[10.46120781799982],0.00351961260457756,None,258.859212698997,None,,,11_s3,001,2023_Mar_09_1145,musicemotionlatency,2021.2.3,117.6750738021789,
21,0,21,0,,,../fMRI_stim/music/Q3/MT0009437817.wav,Q4,261.3153952970024,None,261.29698712960595,None,[0.1475],[-0.04],[1],[0],[0],[7.5527346360031515],0.00020243860490154475,None,268.8738610069995,None,,,11_s3,001,2023_Mar_09_1145,musicemotionlatency,2021.2.3,117.6750738021789,
22,0,22,0,,,../fMRI_stim/music/Q3/MT0026905937.wav,Q3,271.310466404997,None,271.2970954162003,None,[-0.09],[-0.13875],[1],[0],[0],[9.863062351992994],0.0076607942100963555,None,281.1632486879971,None,,,11_s3,001,2023_Mar_09_1145,musicemotionlatency,2021.2.3,117.6750738021789,
23,0,23,0,,,../fMRI_stim/music/Q1/MT0011957429.wav,Q1,283.6066339359968,None,283.59645153840245,None,[0.16625],[0.13625],[1],[0],[0],[6.240060853000614],0.00814008940506028,None,289.83824315699894,None,,,11_s3,001,2023_Mar_09_1145,musicemotionlatency,2021.2.3,117.6750738021789,
,,,,,,,,,,,,,,,,,,,,,,291.8473165280011,None,,,,,,,
