trials.thisRepN,trials.thisTrialN,trials.thisN,trials.thisIndex,starttext.started,starttext.stopped,music.id,Quadrants.id,russellsQuad.started,russellsQuad.stopped,music.started,music.stopped,mouse.x,mouse.y,mouse.leftButton,mouse.midButton,mouse.rightButton,mouse.time,mouse.started,mouse.stopped,fixCross.started,fixCross.stopped,goodbyetext.started,goodbyetext.stopped,participant,session,date,expName,psychopyVersion,frameRate,
0,0,0,0,14.468001074999847,None,../fMRI_stim/music/Q3/MT0033345959.wav,Q4,17.088368783000078,None,16.923601798666336,None,[0.0380952380952381],[-0.2761904761904762],[1],[0],[0],[9.420476721999876],0.002906337665990577,None,26.35727420799958,None,,,12_03,001,2023_Mar_27_1716,musicemotionlatency,2021.2.3,63.926300442406664,
1,0,1,0,,,../fMRI_stim/music/Q1/MT0001189913.wav,Q1,28.817137990000447,None,28.79592928999973,None,[0.009523809523809525],[0.1219047619047619],[1],[0],[0],[7.060827895999864],0.0006998879989623674,None,35.8725552650003,None,,,12_03,001,2023_Mar_27_1716,musicemotionlatency,2021.2.3,63.926300442406664,
2,0,2,0,,,../fMRI_stim/music/Q2/MT0001333258.wav,Q1,38.354438424000364,None,38.3436002283331,None,[0.02666666666666667],[0.024761904761904763],[1],[0],[0],[8.142034887000591],0.013072458333226677,None,46.509802403999856,None,,,12_03,001,2023_Mar_27_1716,musicemotionlatency,2021.2.3,63.926300442406664,
3,0,3,0,,,../fMRI_stim/music/Q1/MT0003594672.wav,Q1,48.934990364999976,None,48.91524517666645,60.92685387199981,[0.015238095238095238],[0.21904761904761905],[1],[0],[0],[12.993626900999516],0.0022187366666912567,None,61.923745555000096,None,,,12_03,001,2023_Mar_27_1716,musicemotionlatency,2021.2.3,63.926300442406664,
4,0,4,0,,,../fMRI_stim/music/Q2/MT0002602057.wav,Q2,64.38581419799993,None,64.37657559566694,None,[-0.31142857142857144],[0.1819047619047619],[1],[0],[0],[8.598401502000343],0.014929009666047932,None,72.9776220370004,None,,,12_03,001,2023_Mar_27_1716,musicemotionlatency,2021.2.3,63.926300442406664,
5,0,5,0,,,../fMRI_stim/music/Q3/MT0003037596.wav,Q4,75.45897691099981,None,75.44494682233356,87.46901708800033,[0.02857142857142857],[-0.3352380952380952],[1],[0],[0],[12.551375479999479],0.010325759333682072,None,88.00193204100015,None,,,12_03,001,2023_Mar_27_1716,musicemotionlatency,2021.2.3,63.926300442406664,
6,0,6,0,,,../fMRI_stim/music/Q4/MT0028709149.wav,Q3,90.51483652600018,None,90.49591451699962,102.5132660600002,[-0.024761904761904763],[-0.32761904761904764],[1],[0],[0],[12.88311163399976],0.004982421998647624,None,103.3909354110001,None,,,12_03,001,2023_Mar_27_1716,musicemotionlatency,2021.2.3,63.926300442406664,
7,0,7,0,,,../fMRI_stim/music/Q4/MT0034160981.wav,Q4,105.85899564699957,None,105.8459249066668,None,[0.13333333333333333],[-0.3],[1],[0],[0],[9.686448661999748],0.010888056666772172,None,115.53814408400012,None,,,12_03,001,2023_Mar_27_1716,musicemotionlatency,2021.2.3,63.926300442406664,
8,0,8,0,,,../fMRI_stim/music/Q3/MT0001844620.wav,Q4,118.00887763500032,None,117.9940241166664,None,[0.06380952380952382],[-0.32476190476190475],[1],[0],[0],[10.550754116999997],0.009608186665900575,None,128.55197113899976,None,,,12_03,001,2023_Mar_27_1716,musicemotionlatency,2021.2.3,63.926300442406664,
9,0,9,0,,,../fMRI_stim/music/Q1/MT0002222957.wav,Q1,131.0596721510001,None,131.04187440500027,None,[0.014285714285714285],[0.30952380952380953],[1],[0],[0],[8.228622107000774],0.006221343999641249,None,139.2817763969997,None,,,12_03,001,2023_Mar_27_1716,musicemotionlatency,2021.2.3,63.926300442406664,
10,0,10,0,,,../fMRI_stim/music/Q4/MT0003454112.wav,Q4,141.77573339300034,None,141.76552547099982,None,[0.02857142857142857],[-0.3380952380952381],[1],[0],[0],[7.943536464999852],0.014109108000411652,None,149.71153607199994,None,,,12_03,001,2023_Mar_27_1716,musicemotionlatency,2021.2.3,63.926300442406664,
11,0,11,0,,,../fMRI_stim/music/Q3/MT0000523076.wav,Q4,152.22401152699967,None,152.20852910200028,None,[0.06666666666666667],[-0.3495238095238095],[1],[0],[0],[10.475419108000096],0.00911532099962642,None,162.6912692850001,None,,,12_03,001,2023_Mar_27_1716,musicemotionlatency,2021.2.3,63.926300442406664,
12,0,12,0,,,../fMRI_stim/music/Q3/MT0002634024.wav,Q3,165.15477032800027,None,165.14137516066646,None,[-0.007619047619047619],[-0.0838095238095238],[1],[0],[0],[10.268482387000404],0.011222675666431314,None,175.41545203799978,None,,,12_03,001,2023_Mar_27_1716,musicemotionlatency,2021.2.3,63.926300442406664,
13,0,13,0,,,../fMRI_stim/music/Q1/MT0003272751.wav,Q2,177.9004969939997,None,177.8912512133336,None,[-0.08285714285714285],[0.16666666666666666],[1],[0],[0],[11.443404573999942],0.015015694334579166,None,189.33611234399996,None,,,12_03,001,2023_Mar_27_1716,musicemotionlatency,2021.2.3,63.926300442406664,
14,0,14,0,,,../fMRI_stim/music/Q1/MT0033841575.wav,Q2,191.86940255900026,None,191.8597275743337,203.885270623,[-0.039047619047619046],[0.20285714285714285],[1],[0],[0],[12.829722612000296],0.015321829334425274,None,204.69105923000006,None,,,12_03,001,2023_Mar_27_1716,musicemotionlatency,2021.2.3,63.926300442406664,
15,0,15,0,,,../fMRI_stim/music/Q3/MT0014665667.wav,Q3,207.14260061500045,None,207.12635529099973,None,[-0.017142857142857144],[-0.28285714285714286],[1],[0],[0],[6.781046989999595],0.00840095800049312,None,213.91493034900031,None,,,12_03,001,2023_Mar_27_1716,musicemotionlatency,2021.2.3,63.926300442406664,
16,0,16,0,,,../fMRI_stim/music/Q2/MT0016743722.wav,Q2,216.4102580409999,None,216.3923588143332,None,[-0.05904761904761905],[0.12857142857142856],[1],[0],[0],[8.838524478999716],0.007215089333840297,None,225.24033354499988,None,,,12_03,001,2023_Mar_27_1716,musicemotionlatency,2021.2.3,63.926300442406664,
17,0,17,0,,,../fMRI_stim/music/Q2/MT0004027946.wav,Q3,227.7215229530002,None,227.7073575623333,None,[-0.1],[-0.012380952380952381],[1],[0],[0],[8.862215344000106],0.011475359333417146,None,236.5747571969996,None,,,12_03,001,2023_Mar_27_1716,musicemotionlatency,2021.2.3,63.926300442406664,
18,0,18,0,,,../fMRI_stim/music/Q1/MT0026753600.wav,Q2,239.05183006100015,None,239.0423159453337,251.0562692909998,[-0.010476190476190476],[0.06190476190476191],[1],[0],[0],[12.185423229999287],0.01473370033363608,None,251.2293187590003,None,,,12_03,001,2023_Mar_27_1716,musicemotionlatency,2021.2.3,63.926300442406664,
19,0,19,0,,,../fMRI_stim/music/Q4/MT0003022328.wav,Q4,253.7034860800004,None,253.69213057466683,None,[0.3047619047619048],[-0.13714285714285715],[1],[0],[0],[10.009909503000017],0.014103947665716987,None,263.70480753300035,None,,,12_03,001,2023_Mar_27_1716,musicemotionlatency,2021.2.3,63.926300442406664,
20,0,20,0,,,../fMRI_stim/music/Q4/MT0001594582.wav,Q3,266.20070153800043,None,266.1814325613329,None,[-0.01619047619047619],[-0.32],[1],[0],[0],[7.347441643999446],0.0036335973327368265,None,273.54229379200024,None,,,12_03,001,2023_Mar_27_1716,musicemotionlatency,2021.2.3,63.926300442406664,
21,0,21,0,,,../fMRI_stim/music/Q2/MT0004293364.wav,Q2,276.01247332099956,None,275.99205361166645,None,[-0.02],[0.10380952380952381],[1],[0],[0],[9.816974669000047],0.003938173666028888,None,285.8223349279997,None,,,12_03,001,2023_Mar_27_1716,musicemotionlatency,2021.2.3,63.926300442406664,
22,0,22,0,,,../fMRI_stim/music/Q4/MT0000550961.wav,Q4,288.3000341850002,None,288.28432086666675,300.30093004599985,[0.014285714285714285],[-0.2980952380952381],[1],[0],[0],[13.016269218999696],0.008958754666309687,None,301.3081218950001,None,,,12_03,001,2023_Mar_27_1716,musicemotionlatency,2021.2.3,63.926300442406664,
23,0,23,0,,,../fMRI_stim/music/Q2/MT0034694413.wav,Q2,303.7658268140003,None,303.758255150667,None,[-0.31238095238095237],[0.2342857142857143],[1],[0],[0],[6.132318195999687],0.01659917266715638,None,309.89048817599996,None,,,12_03,001,2023_Mar_27_1716,musicemotionlatency,2021.2.3,63.926300442406664,
,,,,,,,,,,,,,,,,,,,,,,311.89132404799966,None,,,,,,,
