trials.thisRepN,trials.thisTrialN,trials.thisN,trials.thisIndex,starttext.started,starttext.stopped,music.id,Quadrants.id,russellsQuad.started,russellsQuad.stopped,music.started,music.stopped,mouse.x,mouse.y,mouse.leftButton,mouse.midButton,mouse.rightButton,mouse.time,mouse.started,mouse.stopped,fixCross.started,fixCross.stopped,goodbyetext.started,goodbyetext.stopped,participant,session,date,expName,psychopyVersion,frameRate,
0,0,0,0,15.673240100033581,None,../fMRI_stim/music/Q1/MT0000249842.wav,Q1,18.387732200033497,None,18.369174890127034,None,[0.0787037],[0.27592593],[1],[0],[0],[6.095580400025938],0.012918290100060403,None,24.467659200017806,None,,,14_02,001,2023-04-03_16h38.16.427,musicemotionlatency,2022.1.3,60.00146403290011,
1,0,1,0,,,../fMRI_stim/music/Q2/MT0000133200.wav,Q1,26.75248530000681,None,26.73440909003839,None,[0.25092593],[0.2712963],[1],[0],[0],[7.26998470001854],0.00043918995652347803,None,34.01930440001888,None,,,14_02,001,2023-04-03_16h38.16.427,musicemotionlatency,2022.1.3,60.00146403290011,
2,0,2,0,,,../fMRI_stim/music/Q3/MT0001523435.wav,Q4,36.252833000035025,None,36.23611118003027,None,[0.073148146],[-0.2212963],[1],[0],[0],[5.388218400010373],0.003650680067948997,None,41.636561700026505,None,,,14_02,001,2023-04-03_16h38.16.427,musicemotionlatency,2022.1.3,60.00146403290011,
3,0,3,0,,,../fMRI_stim/music/Q2/MT0005951020.wav,Q1,43.86982810002519,None,43.8532742800191,55.85337259998778,[0.26944444],[0.06388889],[1],[0],[0],[12.725978199974634],0.007901380071416497,None,56.58676470001228,None,,,14_02,001,2023-04-03_16h38.16.427,musicemotionlatency,2022.1.3,60.00146403290011,
4,0,4,0,,,../fMRI_stim/music/Q3/MT0006171393.wav,Q4,58.820217000029515,None,58.80359658004017,70.80400960001862,[0.06388889],[-0.27685186],[1],[0],[0],[13.613982799986843],0.012817480077501386,None,72.4207071000128,None,,,14_02,001,2023-04-03_16h38.16.427,musicemotionlatency,2022.1.3,60.00146403290011,
5,0,5,0,,,../fMRI_stim/music/Q3/MT0005270263.wav,Q1,74.65408780000871,None,74.63744288006565,None,[0.08888889],[0.23518519],[1],[0],[0],[7.274418500019237],0.006813980115111917,None,81.92063270002836,None,,,14_02,001,2023-04-03_16h38.16.427,musicemotionlatency,2022.1.3,60.00146403290011,
6,0,6,0,,,../fMRI_stim/music/Q1/MT0008222676.wav,Q1,84.15401739999652,None,84.13738818005659,None,[0.18425927],[0.2712963],[1],[0],[0],[5.353228899999522],0.0024299800861626863,None,89.50415170000633,None,,,14_02,001,2023-04-03_16h38.16.427,musicemotionlatency,2022.1.3,60.00146403290011,
7,0,7,0,,,../fMRI_stim/music/Q2/MT0001333258.wav,Q1,91.73758930002805,None,91.73763765004696,103.73787130002165,[0.074074075],[0.21111111],[1],[0],[0],[12.517178300011437],0.01615785004105419,None,104.25459530000808,None,,,14_02,001,2023-04-03_16h38.16.427,musicemotionlatency,2022.1.3,60.00146403290011,
8,0,8,0,,,../fMRI_stim/music/Q4/MT0007556029.wav,Q4,106.48806060000788,None,106.48810955003137,None,[0.08240741],[-0.23888889],[1],[0],[0],[9.182824399962556],0.014468849985860288,None,115.6719133000006,None,,,14_02,001,2023-04-03_16h38.16.427,musicemotionlatency,2022.1.3,60.00146403290011,
9,0,9,0,,,../fMRI_stim/music/Q4/MT0000550961.wav,Q4,117.90513740002643,None,117.88854728003498,129.88878089998616,[0.25185186],[-0.15648147],[1],[0],[0],[12.806812499999069],0.005766579997725785,None,130.70559510000749,None,,,14_02,001,2023-04-03_16h38.16.427,musicemotionlatency,2022.1.3,60.00146403290011,
10,0,10,0,,,../fMRI_stim/music/Q3/MT0004817670.wav,Q2,132.93894349999027,None,132.93899275001604,144.93904530000873,[-0.11388889],[0.15277778],[1],[0],[0],[13.984619499999098],0.01649565005209297,None,146.92248519998975,None,,,14_02,001,2023-04-03_16h38.16.427,musicemotionlatency,2022.1.3,60.00146403290011,
11,0,11,0,,,../fMRI_stim/music/Q4/MT0001109401.wav,Q4,149.15579759998946,None,149.13922038003804,161.1397575000301,[0.048148148],[-0.25185186],[1],[0],[0],[14.391075299994554],0.006107580033130944,None,163.53982390003512,None,,,14_02,001,2023-04-03_16h38.16.427,musicemotionlatency,2022.1.3,60.00146403290011,
12,0,12,0,,,../fMRI_stim/music/Q4/MT0007186714.wav,Q3,165.77322550001554,None,165.75655478005066,177.75678759999573,[-0.08240741],[-0.1712963],[1],[0],[0],[13.855686800030526],0.004439980024471879,None,179.6235909999814,None,,,14_02,001,2023-04-03_16h38.16.427,musicemotionlatency,2022.1.3,60.00146403290011,
13,0,13,0,,,../fMRI_stim/music/Q2/MT0007043504.wav,Q1,181.8569373000064,None,181.84030408003602,None,[0.05462963],[0.2175926],[1],[0],[0],[9.853533799992874],0.0025320799904875457,None,191.70692289998988,None,,,14_02,001,2023-04-03_16h38.16.427,musicemotionlatency,2022.1.3,60.00146403290011,
14,0,14,0,,,../fMRI_stim/music/Q2/MT0006810990.wav,Q1,193.9401460000081,None,193.92348578006496,None,[0.05462963],[0.24814814],[1],[0],[0],[6.910103000001982],0.008836380031425506,None,200.8404727000161,None,,,14_02,001,2023-04-03_16h38.16.427,musicemotionlatency,2022.1.3,60.00146403290011,
15,0,15,0,,,../fMRI_stim/music/Q4/MT0000202045.wav,Q1,203.12370759999612,None,203.1237160600489,None,[0.031481482],[0.24074075],[1],[0],[0],[9.23368520004442],0.015902060025837272,None,212.357448499999,None,,,14_02,001,2023-04-03_16h38.16.427,musicemotionlatency,2022.1.3,60.00146403290011,
16,0,16,0,,,../fMRI_stim/music/Q3/MT0000088320.wav,Q1,214.59072199999355,None,214.5907055500429,None,[0.036111113],[0.10185185],[1],[0],[0],[11.88265629997477],0.014649050077423453,None,226.47460260003572,None,,,14_02,001,2023-04-03_16h38.16.427,musicemotionlatency,2022.1.3,60.00146403290011,
17,0,17,0,,,../fMRI_stim/music/Q4/MT0006037085.wav,Q4,228.7246394000249,None,228.7080030500656,None,[0.18611111],[-0.2324074],[1],[0],[0],[8.594145699986257],0.009371350053697824,None,237.308515599987,None,,,14_02,001,2023-04-03_16h38.16.427,musicemotionlatency,2022.1.3,60.00146403290011,
18,0,18,0,,,../fMRI_stim/music/Q1/MT0001757676.wav,Q1,239.57514490000904,None,239.55854192004773,251.5587482000119,[0.098148145],[0.13148148],[1],[0],[0],[12.971870099951047],0.0038467200356535614,None,252.54196010000305,None,,,14_02,001,2023-04-03_16h38.16.427,musicemotionlatency,2022.1.3,60.00146403290011,
19,0,19,0,,,../fMRI_stim/music/Q3/MT0000523076.wav,Q3,254.7921958999941,None,254.77556315006223,266.7758703000145,[-0.07037037],[-0.275],[1],[0],[0],[13.356127700011712],0.0048394500045105815,None,268.1427465000306,None,,,14_02,001,2023-04-03_16h38.16.427,musicemotionlatency,2022.1.3,60.00146403290011,
20,0,20,0,,,../fMRI_stim/music/Q1/MT0005625762.wav,Q2,270.4093420000281,None,270.39266522002873,282.39265200000955,[-0.023148147],[0.24537037],[1],[0],[0],[17.725705899996683],0.007807920046616346,None,288.12612530001206,None,,,14_02,001,2023-04-03_16h38.16.427,musicemotionlatency,2022.1.3,60.00146403290011,
21,0,21,0,,,../fMRI_stim/music/Q1/MT0007067293.wav,Q1,290.392957700009,None,290.376367420028,None,[0.025925925],[0.15462963],[1],[0],[0],[9.369283000007272],0.0014563200529664755,None,299.7598495000275,None,,,14_02,001,2023-04-03_16h38.16.427,musicemotionlatency,2022.1.3,60.00146403290011,
22,0,22,0,,,../fMRI_stim/music/Q1/MT0001189913.wav,Q1,302.0265923999832,None,302.00994842005895,None,[0.14351852],[0.26018518],[1],[0],[0],[7.560804100008681],0.009979019989259541,None,309.5766721999971,None,,,14_02,001,2023-04-03_16h38.16.427,musicemotionlatency,2022.1.3,60.00146403290011,
23,0,23,0,,,../fMRI_stim/music/Q2/MT0002050671.wav,Q1,311.8101054999861,None,311.8101484500221,323.810354700021,[0.17962962],[0.28425926],[1],[0],[0],[12.466961900005117],0.015949849970638752,None,324.2770681999973,None,,,14_02,001,2023-04-03_16h38.16.427,musicemotionlatency,2022.1.3,60.00146403290011,
,,,,,,,,,,,,,,,,,,,,,,326.27730329998303,None,,,,,,,
