trials.thisRepN,trials.thisTrialN,trials.thisN,trials.thisIndex,starttext.started,music.id,russellsQuad.started,music.started,mouse.started,music.stopped,Quadrants.id,mouse.x,mouse.y,mouse.leftButton,mouse.midButton,mouse.rightButton,mouse.time,fixCross.started,fixCross.stopped,goodbyetext.started,goodbyetext.stopped,participant,session,date,expName,psychopyVersion,frameRate,
0,0,0,0,92.90448989998549,../fMRI_stim/music/Q3/MT0007338724.wav,95.61722640000517,95.59890354007948,0.7849486999912187,107.59852429997409,Q3,[-0.05092592592592592],[-0.07685185185185185],[1],[0],[0],[16.025489799969364],111.63206979999086,113.8653397000162,,,15_02,001,2023-04-05_15h48.51.351,musicemotionlatency,2022.2.5,59.97936709422587,
1,0,1,0,,../fMRI_stim/music/Q3/MT0000255724.wav,113.8653397000162,113.84869368000655,0.22708589996909723,125.84900159999961,Q3,[-0.10092592592592593],[-0.33796296296296297],[1],[0],[0],[12.188635399972554],126.0490130999824,128.31644319999032,,,15_02,001,2023-04-05_15h48.51.351,musicemotionlatency,2022.2.5,59.97936709422587,
2,0,2,0,,../fMRI_stim/music/Q1/MT0002538335.wav,128.31644319999032,128.29907382001403,0.2592680999659933,,Q1,[0.20277777777777778],[0.1712962962962963],[1],[0],[0],[9.989859400026035],138.29934369999683,140.55010980000952,,,15_02,001,2023-04-05_15h48.51.351,musicemotionlatency,2022.2.5,59.97936709422587,
3,0,3,0,,../fMRI_stim/music/Q1/MT0000392975.wav,140.55010980000952,140.5327524000313,0.23245259997202083,152.53309129999252,Q4,[0.28703703703703703],[-0.1962962962962963],[1],[0],[0],[12.300904999952763],152.83307529997546,155.08380149997538,,,15_02,001,2023-04-05_15h48.51.351,musicemotionlatency,2022.2.5,59.97936709422587,
4,0,4,0,,../fMRI_stim/music/Q2/MT0007926918.wav,155.08380149997538,155.06652310001664,0.24271789996419102,167.06688009999925,Q1,[0.18888888888888888],[0.21851851851851853],[1],[0],[0],[13.590300299983937],168.66684179997537,170.9002451999695,,,15_02,001,2023-04-05_15h48.51.351,musicemotionlatency,2022.2.5,59.97936709422587,
5,0,5,0,,../fMRI_stim/music/Q2/MT0000377411.wav,170.9002451999695,170.9002945999964,0.23818590003065765,,Q1,[0.008333333333333333],[0.2759259259259259],[1],[0],[0],[7.894696399976965],178.8004515999928,181.05117439996684,,,15_02,001,2023-04-05_15h48.51.351,musicemotionlatency,2022.2.5,59.97936709422587,
6,0,6,0,,../fMRI_stim/music/Q4/MT0009741521.wav,181.05117439996684,181.0338475999888,0.24408980004955083,,Q4,[0.28703703703703703],[-0.3388888888888889],[1],[0],[0],[11.972519500006456],193.01748869998846,195.26826929999515,,,15_02,001,2023-04-05_15h48.51.351,musicemotionlatency,2022.2.5,59.97936709422587,
7,0,7,0,,../fMRI_stim/music/Q3/MT0002006203.wav,195.26826929999515,195.2342938799877,0.2298146999673918,207.2345357000013,Q3,[-0.14814814814814814],[-0.35],[1],[0],[0],[12.753087900055107],208.00122979999287,210.23531089996686,,,15_02,001,2023-04-05_15h48.51.351,musicemotionlatency,2022.2.5,59.97936709422587,
8,0,8,0,,../fMRI_stim/music/Q3/MT0003396470.wav,210.23531089996686,210.21798778004015,0.22606769995763898,222.2182781000156,Q2,[-0.14907407407407408],[0.1648148148148148],[1],[0],[0],[12.539766200003214],222.76828349998686,225.01905800000532,,,15_02,001,2023-04-05_15h48.51.351,musicemotionlatency,2022.2.5,59.97936709422587,
9,0,9,0,,../fMRI_stim/music/Q2/MT0006484633.wav,225.01905800000532,225.00180630001705,0.24251470004674047,,Q1,[0.020370370370370372],[0.1925925925925926],[1],[0],[0],[8.790324300003704],233.80192150000948,236.05266029998893,,,15_02,001,2023-04-05_15h48.51.351,musicemotionlatency,2022.2.5,59.97936709422587,
10,0,10,0,,../fMRI_stim/music/Q4/MT0006164654.wav,236.05266029998893,236.0353393999976,0.24033719999715686,,Q4,[0.3074074074074074],[-0.0824074074074074],[1],[0],[0],[8.859150099975523],244.90221939998446,247.15329519996885,,,15_02,001,2023-04-05_15h48.51.351,musicemotionlatency,2022.2.5,59.97936709422587,
11,0,11,0,,../fMRI_stim/music/Q1/MT0005737276.wav,247.15329519996885,247.13562810001895,0.23710300005041063,,Q1,[0.30833333333333335],[0.06759259259259259],[1],[0],[0],[9.39567050000187],256.5358720999793,258.78663529996993,,,15_02,001,2023-04-05_15h48.51.351,musicemotionlatency,2022.2.5,59.97936709422587,
12,0,12,0,,../fMRI_stim/music/Q4/MT0000218346.wav,258.78663529996993,258.76926750002895,0.23811159998876974,270.76965380000183,Q3,[-0.17037037037037037],[-0.3490740740740741],[1],[0],[0],[12.494684000033885],271.26966429996537,273.5204230999807,,,15_02,001,2023-04-05_15h48.51.351,musicemotionlatency,2022.2.5,59.97936709422587,
13,0,13,0,,../fMRI_stim/music/Q2/MT0015962332.wav,273.5204230999807,273.50299310003174,0.23799039999721572,285.5033206999651,Q1,[0.15555555555555556],[0.3453703703703704],[1],[0],[0],[12.344947700039484],285.85334400000283,288.10408600000665,,,15_02,001,2023-04-05_15h48.51.351,musicemotionlatency,2022.2.5,59.97936709422587,
14,0,14,0,,../fMRI_stim/music/Q4/MT0004537445.wav,288.10408600000665,288.0867300000391,0.2337100000004284,,Q1,[0.08148148148148149],[0.10277777777777777],[1],[0],[0],[8.332887600001413],296.4202786000096,298.6710284000146,,,15_02,001,2023-04-05_15h48.51.351,musicemotionlatency,2022.2.5,59.97936709422587,
15,0,15,0,,../fMRI_stim/music/Q4/MT0001942272.wav,298.6710284000146,298.65435960004106,0.23844190000090748,,Q4,[0.06018518518518518],[-0.06111111111111111],[1],[0],[0],[9.494329700013623],308.15392359998077,310.3873223999981,,,15_02,001,2023-04-05_15h48.51.351,musicemotionlatency,2022.2.5,59.97936709422587,
16,0,16,0,,../fMRI_stim/music/Q1/MT0009010830.wav,310.3873223999981,310.387338600005,0.23226299998350441,322.38765930000227,Q1,[0.03888888888888889],[0.07222222222222222],[1],[0],[0],[15.53345560003072],325.9210720999981,328.18849440000486,,,15_02,001,2023-04-05_15h48.51.351,musicemotionlatency,2022.2.5,59.97936709422587,
17,0,17,0,,../fMRI_stim/music/Q4/MT0028550964.wav,328.18849440000486,328.17116232002155,0.2599525999976322,,Q4,[0.2777777777777778],[-0.32407407407407407],[1],[0],[0],[10.70633389998693],338.8880955000059,341.13888370001223,,,15_02,001,2023-04-05_15h48.51.351,musicemotionlatency,2022.2.5,59.97936709422587,
18,0,18,0,,../fMRI_stim/music/Q1/MT0026158301.wav,341.13888370001223,341.1215018000221,0.23667290003504604,,Q4,[0.15555555555555556],[-0.3435185185185185],[1],[0],[0],[4.896563699992839],346.02230229997076,348.28904239996336,,,15_02,001,2023-04-05_15h48.51.351,musicemotionlatency,2022.2.5,59.97936709422587,
19,0,19,0,,../fMRI_stim/music/Q1/MT0004037272.wav,348.28904239996336,348.27237272001804,0.261561100021936,,Q1,[0.2935185185185185],[0.04722222222222222],[1],[0],[0],[9.25399950001156],357.53858860000037,359.78934979997575,,,15_02,001,2023-04-05_15h48.51.351,musicemotionlatency,2022.2.5,59.97936709422587,
20,0,20,0,,../fMRI_stim/music/Q3/MT0014192212.wav,359.78934979997575,359.77198260003934,0.2428891999879852,,Q3,[-0.16574074074074074],[-0.3472222222222222],[1],[0],[0],[9.723995900014415],369.5055900000152,371.7730108000105,,,15_02,001,2023-04-05_15h48.51.351,musicemotionlatency,2022.2.5,59.97936709422587,
21,0,21,0,,../fMRI_stim/music/Q3/MT0004922692.wav,371.7730108000105,371.7556629200233,0.2528763000154868,383.75598780001746,Q4,[0.030555555555555555],[-0.3333333333333333],[1],[0],[0],[14.16262999997707],385.9226888999692,388.17347819998395,,,15_02,001,2023-04-05_15h48.51.351,musicemotionlatency,2022.2.5,59.97936709422587,
22,0,22,0,,../fMRI_stim/music/Q2/MT0003326925.wav,388.17347819998395,388.15610010002274,0.2392699000192806,,Q1,[0.14074074074074075],[0.3416666666666667],[1],[0],[0],[8.12744529999327],396.2896585999988,398.5230348999612,,,15_02,001,2023-04-05_15h48.51.351,musicemotionlatency,2022.2.5,59.97936709422587,
23,0,23,0,,../fMRI_stim/music/Q2/MT0004807446.wav,398.5230348999612,398.50643568001686,0.2259282000013627,,Q1,[0.27685185185185185],[0.32592592592592595],[1],[0],[0],[8.806483399996068],407.32327479997184,409.32332939998014,,,15_02,001,2023-04-05_15h48.51.351,musicemotionlatency,2022.2.5,59.97936709422587,
,,,,,,,,,,,,,,,,,,,409.32332939998014,411.32341399998404,,,,,,,
