trials.thisRepN,trials.thisTrialN,trials.thisN,trials.thisIndex,starttext.started,starttext.stopped,music.id,russellsQuad.started,music.started,mouse.started,music.stopped,Quadrants.id,mouse.x,mouse.y,mouse.leftButton,mouse.midButton,mouse.rightButton,mouse.time,fixCross.started,fixCross.stopped,goodbyetext.started,goodbyetext.stopped,participant,session,date,expName,psychopyVersion,frameRate,
0,0,0,0,14.094353099993896,16.879512399958912,../fMRI_stim/music/Q4/MT0028066739.wav,16.879512399958912,16.861198369943303,0.774130999983754,28.860302299959585,Q4,[0.1537037037037037],[-0.3472222222222222],[1],[0],[0],[16.73485409998102],33.610483399999794,35.86164119996829,,,15_04,001,2023-04-05_16h00.50.710,musicemotionlatency,2022.2.5,59.994552481091866,
1,0,1,0,,,../fMRI_stim/music/Q1/MT0028617657.wav,35.86164119996829,35.843871549965115,0.23720250005135313,47.84457909996854,Q4,[0.2833333333333333],[-0.044444444444444446],[1],[0],[0],[15.379248199984431],51.22799619997386,53.49539930000901,,,15_04,001,2023-04-05_16h00.50.710,musicemotionlatency,2022.2.5,59.994552481091866,
2,0,2,0,,,../fMRI_stim/music/Q1/MT0028627699.wav,53.49539930000901,53.478090759995396,0.2562518999911845,,Q4,[0.275],[-0.32685185185185184],[1],[0],[0],[9.059742700017523],62.54498449998209,64.81240779999644,,,15_04,001,2023-04-05_16h00.50.710,musicemotionlatency,2022.2.5,59.994552481091866,
3,0,3,0,,,../fMRI_stim/music/Q4/MT0030442334.wav,64.81240779999644,64.79505115996581,0.25828660000115633,76.79536399996141,Q4,[0.04537037037037037],[-0.3351851851851852],[1],[0],[0],[15.141818700009026],79.94543869997142,82.24618749995716,,,15_04,001,2023-04-05_16h00.50.710,musicemotionlatency,2022.2.5,59.994552481091866,
4,0,4,0,,,../fMRI_stim/music/Q4/MT0030369896.wav,82.24618749995716,82.22953507999192,0.28982589999213815,94.22917889995733,Q3,[-0.28055555555555556],[-0.3333333333333333],[1],[0],[0],[13.459395000012591],95.69587479997426,97.94663089996902,,,15_04,001,2023-04-05_16h00.50.710,musicemotionlatency,2022.2.5,59.994552481091866,
5,0,5,0,,,../fMRI_stim/music/Q3/MT0014046859.wav,97.94663089996902,97.92930185000296,0.2405049999943003,109.92960360000143,Q3,[-0.16296296296296298],[-0.08796296296296297],[1],[0],[0],[13.992263299995102],111.92965169996023,114.18039240001235,,,15_04,001,2023-04-05_16h00.50.710,musicemotionlatency,2022.2.5,59.994552481091866,
6,0,6,0,,,../fMRI_stim/music/Q3/MT0026330298.wav,114.18039240001235,114.16307484995923,0.2323455999721773,126.16348069999367,Q3,[-0.08888888888888889],[-0.18333333333333332],[1],[0],[0],[18.017224699957296],132.18021329998737,134.39692869997816,,,15_04,001,2023-04-05_16h00.50.710,musicemotionlatency,2022.2.5,59.994552481091866,
7,0,7,0,,,../fMRI_stim/music/Q3/MT0015715008.wav,134.39692869997816,134.3969449399854,0.21808679995592684,146.39724640001077,Q2,[-0.15833333333333333],[0.15925925925925927],[1],[0],[0],[12.515280699997675],146.91393589996733,149.16467769996962,,,15_04,001,2023-04-05_16h00.50.710,musicemotionlatency,2022.2.5,59.994552481091866,
8,0,8,0,,,../fMRI_stim/music/Q1/MT0018450519.wav,149.16467769996962,149.1473337500065,0.23278910003136843,161.14764739997918,Q2,[-0.049074074074074076],[0.05555555555555555],[1],[0],[0],[17.933253499970306],167.0811419999809,169.34855319996132,,,15_04,001,2023-04-05_16h00.50.710,musicemotionlatency,2022.2.5,59.994552481091866,
9,0,9,0,,,../fMRI_stim/music/Q2/MT0012116237.wav,169.34855319996132,169.33122896000276,0.26050460000988096,181.33152629999677,Q1,[0.010185185185185186],[0.2916666666666667],[1],[0],[0],[14.872401800006628],184.2149735999992,186.46500369999558,,,15_04,001,2023-04-05_16h00.50.710,musicemotionlatency,2022.2.5,59.994552481091866,
10,0,10,0,,,../fMRI_stim/music/Q2/MT0028469910.wav,186.46500369999558,186.4483323499735,0.24175619997549802,198.44865139998728,Q2,[-0.28055555555555556],[0.3],[1],[0],[0],[13.257691699953284],199.7153678999748,201.98275729996385,,,15_04,001,2023-04-05_16h00.50.710,musicemotionlatency,2022.2.5,59.994552481091866,
11,0,11,0,,,../fMRI_stim/music/Q1/MT0013350034.wav,201.98275729996385,201.96544165995437,0.254243100003805,213.96573549997993,Q4,[0.27685185185185185],[-0.31851851851851853],[1],[0],[0],[12.145492399984505],214.11574400000973,216.3831657000119,,,15_04,001,2023-04-05_16h00.50.710,musicemotionlatency,2022.2.5,59.994552481091866,
12,0,12,0,,,../fMRI_stim/music/Q1/MT0009904717.wav,216.3831657000119,216.36584765998413,0.253516299999319,228.36612709995825,Q4,[0.2759259259259259],[-0.16296296296296298],[1],[0],[0],[14.646058699989226],231.016214400006,233.2662924999604,,,15_04,001,2023-04-05_16h00.50.710,musicemotionlatency,2022.2.5,59.994552481091866,
13,0,13,0,,,../fMRI_stim/music/Q2/MT0008596275.wav,233.2662924999604,233.26628505996194,0.25408330000936985,245.2666278000106,Q1,[0.04259259259259259],[0.24351851851851852],[1],[0],[0],[13.095420799974818],246.36663130001398,248.6000197000103,,,15_04,001,2023-04-05_16h00.50.710,musicemotionlatency,2022.2.5,59.994552481091866,
14,0,14,0,,,../fMRI_stim/music/Q3/MT0011440705.wav,248.6000197000103,248.58337993996682,0.22639590001199394,,Q3,[-0.2833333333333333],[-0.31574074074074077],[1],[0],[0],[8.53984969999874],257.1335798999644,259.36763960000826,,,15_04,001,2023-04-05_16h00.50.710,musicemotionlatency,2022.2.5,59.994552481091866,
15,0,15,0,,,../fMRI_stim/music/Q3/MT0015004289.wav,259.36763960000826,259.3503313399968,0.22947039996506646,271.3506173999631,Q3,[-0.30648148148148147],[-0.17592592592592593],[1],[0],[0],[12.453291099984199],271.8172990999883,274.05070580000756,,,15_04,001,2023-04-05_16h00.50.710,musicemotionlatency,2022.2.5,59.994552481091866,
16,0,16,0,,,../fMRI_stim/music/Q2/MT0026963572.wav,274.05070580000756,274.0507165500021,0.2349534000386484,286.05102660000557,Q1,[0.026851851851851852],[0.19166666666666668],[1],[0],[0],[12.914755399979185],286.9677493000054,289.2012090999633,,,15_04,001,2023-04-05_16h00.50.710,musicemotionlatency,2022.2.5,59.994552481091866,
17,0,17,0,,,../fMRI_stim/music/Q2/MT0014878397.wav,289.2012090999633,289.18445814000444,0.22915219998685643,,Q1,[0.2740740740740741],[0.18425925925925926],[1],[0],[0],[10.453840800037142],299.65137729997514,301.8854525999632,,,15_04,001,2023-04-05_16h00.50.710,musicemotionlatency,2022.2.5,59.994552481091866,
18,0,18,0,,,../fMRI_stim/music/Q3/MT0007728545.wav,301.8854525999632,301.8681275399984,0.22713750001275912,313.86843799997587,Q3,[-0.15648148148148147],[-0.34629629629629627],[1],[0],[0],[15.138772599981166],317.01851719996193,319.2685851000133,,,15_04,001,2023-04-05_16h00.50.710,musicemotionlatency,2022.2.5,59.994552481091866,
19,0,19,0,,,../fMRI_stim/music/Q1/MT0027035970.wav,319.2685851000133,319.2686429599882,0.2531046000076458,331.26889800000936,Q1,[0.3037037037037037],[0.14351851851851852],[1],[0],[0],[12.330173499998637],331.60223839996615,333.85299419995863,,,15_04,001,2023-04-05_16h00.50.710,musicemotionlatency,2022.2.5,59.994552481091866,
20,0,20,0,,,../fMRI_stim/music/Q4/MT0014475915.wav,333.85299419995863,333.8356617499667,0.2408601000206545,345.8359713999671,Q4,[0.2537037037037037],[-0.10462962962962963],[1],[0],[0],[13.325975100044161],347.1693920000107,349.41941279999446,,,15_04,001,2023-04-05_16h00.50.710,musicemotionlatency,2022.2.5,59.994552481091866,
21,0,21,0,,,../fMRI_stim/music/Q4/MT0010855214.wav,349.41941279999446,349.4029093499703,0.23922139999922365,361.40306799998507,Q1,[0.2611111111111111],[0.1824074074074074],[1],[0],[0],[12.74246179999318],362.1530608999892,364.4364965999848,,,15_04,001,2023-04-05_16h00.50.710,musicemotionlatency,2022.2.5,59.994552481091866,
22,0,22,0,,,../fMRI_stim/music/Q2/MT0028560561.wav,364.4364965999848,364.3698260400095,0.22896709997439757,376.3701080000028,Q1,[0.15555555555555556],[0.18055555555555555],[1],[0],[0],[12.154156400007196],376.53678939997917,378.77089149999665,,,15_04,001,2023-04-05_16h00.50.710,musicemotionlatency,2022.2.5,59.994552481091866,
23,0,23,0,,,../fMRI_stim/music/Q4/MT0029976595.wav,378.77089149999665,378.75353954000167,0.22088620002614334,390.7538316999562,Q4,[0.15833333333333333],[-0.337037037037037],[1],[0],[0],[14.428946100000758],393.187243399967,395.1872932999977,,,15_04,001,2023-04-05_16h00.50.710,musicemotionlatency,2022.2.5,59.994552481091866,
,,,,,,,,,,,,,,,,,,,,395.1872932999977,397.18734459998086,,,,,,,
