trials.thisRepN,trials.thisTrialN,trials.thisN,trials.thisIndex,starttext.started,starttext.stopped,music.id,Quadrants.id,russellsQuad.started,russellsQuad.stopped,music.started,music.stopped,mouse.x,mouse.y,mouse.leftButton,mouse.midButton,mouse.rightButton,mouse.time,mouse.started,mouse.stopped,fixCross.started,fixCross.stopped,goodbyetext.started,goodbyetext.stopped,participant,session,date,expName,psychopyVersion,frameRate,
0,0,0,0,19.224630011012778,None,../fMRI_stim/music/Q3/MT0007438571.wav,Q4,22.030949587002397,None,21.822625641466587,33.83869052899536,[0.12285714285714286],[-0.0761904761904762],[1],[0],[0],[16.82911058398895],0.015154279477428645,None,38.658545862010214,None,,,16_04,001,2023_Apr_17_1659,musicemotionlatency,2021.2.3,None,
1,0,1,0,,,../fMRI_stim/music/Q1/MT0002297016.wav,Q1,41.41218620003201,None,41.39628588344203,53.4216533320141,[0.029523809523809525],[0.10761904761904761],[1],[0],[0],[20.622553990979213],0.007564571453258395,None,62.05228921800153,None,,,16_04,001,2023_Apr_17_1659,musicemotionlatency,2021.2.3,None,
2,0,2,0,,,../fMRI_stim/music/Q2/MT0007697753.wav,Q1,64.61333766201278,None,64.59867296196752,76.6138664589962,[0.058095238095238096],[0.19238095238095237],[1],[0],[0],[19.469202024978586],0.008686477958690375,None,84.07536054303637,None,,,16_04,001,2023_Apr_17_1659,musicemotionlatency,2021.2.3,None,
3,0,3,0,,,../fMRI_stim/music/Q4/MT0001641228.wav,Q4,86.57034173602005,None,86.54492205547866,98.55606994702248,[0.058095238095238096],[-0.04380952380952381],[1],[0],[0],[21.66919889295241],0.0013786004856228828,None,108.22992256004363,None,,,16_04,001,2023_Apr_17_1659,musicemotionlatency,2021.2.3,None,
4,0,4,0,,,../fMRI_stim/music/Q3/MT0001542676.wav,Q4,110.75218808202771,None,110.74215501697034,122.75583610701142,[0.23047619047619047],[-0.11333333333333333],[1],[0],[0],[14.388572269002907],0.013391511980444193,None,125.13667710701702,None,,,16_04,001,2023_Apr_17_1659,musicemotionlatency,2021.2.3,None,
5,0,5,0,,,../fMRI_stim/music/Q1/MT0002053300.wav,Q1,127.62485949700931,None,127.60973938996904,139.63825417601038,[0.14952380952380953],[0.03333333333333333],[1],[0],[0],[13.623993705958128],0.00970862089889124,None,141.24628382304218,None,,,16_04,001,2023_Apr_17_1659,musicemotionlatency,2021.2.3,None,
6,0,6,0,,,../fMRI_stim/music/Q3/MT0002006203.wav,Q4,143.77357940899674,None,143.7488097674446,155.76226137002232,[0.04285714285714286],[-0.05523809523809524],[1],[0],[0],[12.49630782904569],0.005303244397509843,None,156.25576688500587,None,,,16_04,001,2023_Apr_17_1659,musicemotionlatency,2021.2.3,None,
7,0,7,0,,,../fMRI_stim/music/Q1/MT0008675527.wav,Q1,158.70265419199131,None,158.68650525248376,170.70882094599074,[0.16285714285714287],[0.11523809523809524],[1],[0],[0],[17.643564969010185],0.00987284246366471,None,176.3355621410301,None,,,16_04,001,2023_Apr_17_1659,musicemotionlatency,2021.2.3,None,
8,0,8,0,,,../fMRI_stim/music/Q1/MT0001671399.wav,Q4,178.78797358699376,None,178.77686717447358,190.80442932998994,[0.20952380952380953],[-0.05904761904761905],[1],[0],[0],[15.273624231980648],0.011768805445171893,None,194.05532410304295,None,,,16_04,001,2023_Apr_17_1659,musicemotionlatency,2021.2.3,None,
9,0,9,0,,,../fMRI_stim/music/Q4/MT0009075362.wav,Q4,196.51930313301273,None,196.4935248244903,208.52193973702379,[0.07238095238095238],[-0.10095238095238095],[1],[0],[0],[12.528696381952614],0.0007305275066755712,None,209.03833839099389,None,,,16_04,001,2023_Apr_17_1659,musicemotionlatency,2021.2.3,None,
10,0,10,0,,,../fMRI_stim/music/Q1/MT0002538335.wav,Q1,211.53876007103827,None,211.5236027749488,223.53625789901707,[0.11523809523809524],[0.14761904761904762],[1],[0],[0],[16.63093398604542],0.010716519958805293,None,228.16052344202762,None,,,16_04,001,2023_Apr_17_1659,musicemotionlatency,2021.2.3,None,
11,0,11,0,,,../fMRI_stim/music/Q1/MT0009213083.wav,Q1,230.68345056002727,None,230.66458591145928,242.67360206699232,[0.17523809523809525],[0.040952380952380955],[1],[0],[0],[14.769535881001502],0.007966928416863084,None,245.44401912100147,None,,,16_04,001,2023_Apr_17_1659,musicemotionlatency,2021.2.3,None,
12,0,12,0,,,../fMRI_stim/music/Q3/MT0001920501.wav,Q4,247.91350333899027,None,247.89847653395262,259.9224695159937,[0.047619047619047616],[-0.10857142857142857],[1],[0],[0],[13.191692246007733],0.009865339903626591,None,261.10261926299427,None,,,16_04,001,2023_Apr_17_1659,musicemotionlatency,2021.2.3,None,
13,0,13,0,,,../fMRI_stim/music/Q4/MT0000901959.wav,Q4,263.5958916360396,None,263.5747013959335,275.5987345870235,[0.04476190476190476],[-0.19428571428571428],[1],[0],[0],[16.952821724000387],0.005076824862044305,None,280.53868639998836,None,,,16_04,001,2023_Apr_17_1659,musicemotionlatency,2021.2.3,None,
14,0,14,0,,,../fMRI_stim/music/Q4/MT0001438043.wav,Q4,283.0021269490244,None,282.9926545389579,295.00594629900297,[0.035238095238095235],[-0.22095238095238096],[1],[0],[0],[20.794113659998402],1.90704595297575e-05,None,303.7869829600095,None,,,16_04,001,2023_Apr_17_1659,musicemotionlatency,2021.2.3,None,
15,0,15,0,,,../fMRI_stim/music/Q2/MT0001938929.wav,Q1,306.2801785580232,None,306.2583277604776,318.27577346604085,[0.13428571428571429],[0.23047619047619047],[1],[0],[0],[15.303346508997492],0.003854325506836176,None,321.5758785130456,None,,,16_04,001,2023_Apr_17_1659,musicemotionlatency,2021.2.3,None,
16,0,16,0,,,../fMRI_stim/music/Q2/MT0008346862.wav,Q1,324.0865915400209,None,324.07262544545813,336.09003362304065,[0.05142857142857143],[0.17142857142857143],[1],[0],[0],[17.51113505900139],0.012037701439112425,None,341.58810087502934,None,,,16_04,001,2023_Apr_17_1659,musicemotionlatency,2021.2.3,None,
17,0,17,0,,,../fMRI_stim/music/Q3/MT0007043936.wav,Q4,344.1021071849973,None,344.0886310864822,356.108022792032,[0.23047619047619047],[-0.18095238095238095],[1],[0],[0],[15.50497643102426],0.014013491454534233,None,359.5987689670292,None,,,16_04,001,2023_Apr_17_1659,musicemotionlatency,2021.2.3,None,
18,0,18,0,,,../fMRI_stim/music/Q2/MT0003326925.wav,Q1,362.0715122499969,None,362.0549543194706,374.0656331650098,[0.08095238095238096],[0.1619047619047619],[1],[0],[0],[14.892753082967829],0.008535206492524594,None,376.95728357404005,None,,,16_04,001,2023_Apr_17_1659,musicemotionlatency,2021.2.3,None,
19,0,19,0,,,../fMRI_stim/music/Q4/MT0010485603.wav,Q1,379.39883695100434,None,379.37389219595354,391.39089645200875,[0.05047619047619047],[0.04380952380952381],[1],[0],[0],[16.41212789202109],0.0003068738733418286,None,395.80189356801566,None,,,16_04,001,2023_Apr_17_1659,musicemotionlatency,2021.2.3,None,
20,0,20,0,,,../fMRI_stim/music/Q2/MT0003019852.wav,Q1,398.2477749839891,None,398.23726643248233,410.2687738730456,[0.22285714285714286],[0.25142857142857145],[1],[0],[0],[12.868465867009945],0.015118021459784359,None,411.10634074598784,None,,,16_04,001,2023_Apr_17_1659,musicemotionlatency,2021.2.3,None,
21,0,21,0,,,../fMRI_stim/music/Q4/MT0001942272.wav,Q1,413.55276490404503,None,413.5404432544485,425.55127030500444,[0.24],[0.06666666666666667],[1],[0],[0],[13.887105781002901],0.01235685747815296,None,427.43098926200764,None,,,16_04,001,2023_Apr_17_1659,musicemotionlatency,2021.2.3,None,
22,0,22,0,,,../fMRI_stim/music/Q2/MT0002399275.wav,Q1,429.8808922840399,None,429.8579693234526,441.8828579040128,[0.15714285714285714],[0.24476190476190476],[1],[0],[0],[20.747902019997127],0.0066179074929095805,None,450.61711332801497,None,,,16_04,001,2023_Apr_17_1659,musicemotionlatency,2021.2.3,None,
23,0,23,0,,,../fMRI_stim/music/Q3/MT0001193971.wav,Q4,453.10679221502505,None,453.08912195944,465.1032471440267,[0.16],[-0.05904761904761905],[1],[0],[0],[18.6277261810028],0.006059599458239973,None,471.7290325849899,None,,,16_04,001,2023_Apr_17_1659,musicemotionlatency,2021.2.3,None,
,,,,,,,,,,,,,,,,,,,,,,473.73150733002694,None,,,,,,,
