trials.thisRepN,trials.thisTrialN,trials.thisN,trials.thisIndex,starttext.started,starttext.stopped,music.id,Quadrants.id,russellsQuad.started,russellsQuad.stopped,music.started,music.stopped,mouse.x,mouse.y,mouse.leftButton,mouse.midButton,mouse.rightButton,mouse.time,mouse.started,mouse.stopped,fixCross.started,fixCross.stopped,goodbyetext.started,goodbyetext.stopped,participant,session,date,expName,psychopyVersion,frameRate,
0,0,0,0,13.162277110968716,None,../fMRI_stim/music/Q4/MT0010485603.wav,Q1,15.797895448980853,None,15.693755000457168,None,[0.24285714285714285],[0.1219047619047619],[1],[0],[0],[4.227368363994174],0.008337873499840498,None,19.92785360297421,None,,,17_01,001,2023_Apr_18_1757,musicemotionlatency,2021.2.3,None,
1,0,1,0,,,../fMRI_stim/music/Q2/MT0008346862.wav,Q2,22.476012195984367,None,22.4610903564957,None,[-0.2733333333333333],[0.27714285714285714],[1],[0],[0],[4.306749785959255],0.010351969511248171,None,26.776096755987965,None,,,17_01,001,2023_Apr_18_1757,musicemotionlatency,2021.2.3,None,
2,0,2,0,,,../fMRI_stim/music/Q4/MT0031826774.wav,Q4,29.33296527498169,None,29.31071090550395,None,[0.03428571428571429],[-0.23142857142857143],[1],[0],[0],[10.325525287014898],0.0035970224998891354,None,39.6488360989606,None,,,17_01,001,2023_Apr_18_1757,musicemotionlatency,2021.2.3,None,
3,0,3,0,,,../fMRI_stim/music/Q1/MT0013633209.wav,Q1,42.11567162099527,None,42.09081726047443,54.10046043997863,[0.2914285714285714],[0.24952380952380954],[1],[0],[0],[12.307679046003614],0.0005167725030332804,None,54.436875679995865,None,,,17_01,001,2023_Apr_18_1757,musicemotionlatency,2021.2.3,None,
4,0,4,0,,,../fMRI_stim/music/Q3/MT0029877658.wav,Q2,56.951727742969524,None,56.931841282069215,None,[-0.040952380952380955],[0.0761904761904762],[1],[0],[0],[8.292720983037725],0.010094868077430874,None,65.23159687197767,None,,,17_01,001,2023_Apr_18_1757,musicemotionlatency,2021.2.3,None,
5,0,5,0,,,../fMRI_stim/music/Q2/MT0012001409.wav,Q1,67.77363128599245,None,67.74606775029096,None,[0.0380952380952381],[0.04],[1],[0],[0],[5.2685132379992865],0.0040897103026509285,None,73.02749229699839,None,,,17_01,001,2023_Apr_18_1757,musicemotionlatency,2021.2.3,None,
6,0,6,0,,,../fMRI_stim/music/Q3/MT0026905937.wav,Q4,75.59161551500438,None,75.57289684166899,87.58266318199458,[0.10285714285714286],[-0.2733333333333333],[1],[0],[0],[12.360550890967716],0.00727358867879957,None,87.9430597879691,None,,,17_01,001,2023_Apr_18_1757,musicemotionlatency,2021.2.3,None,
7,0,7,0,,,../fMRI_stim/music/Q4/MT0015026293.wav,Q4,90.52333884697873,None,90.50403552188072,None,[0.023809523809523808],[-0.3047619047619048],[1],[0],[0],[9.45573708601296],0.012759278935845941,None,99.9648181439843,None,,,17_01,001,2023_Apr_18_1757,musicemotionlatency,2021.2.3,None,
8,0,8,0,,,../fMRI_stim/music/Q3/MT0011836290.wav,Q2,102.53742988000158,None,102.52075068366248,None,[-0.3038095238095238],[0.24666666666666667],[1],[0],[0],[9.793692462029867],0.008479197684209794,None,112.32529462501407,None,,,17_01,001,2023_Apr_18_1757,musicemotionlatency,2021.2.3,None,
9,0,9,0,,,../fMRI_stim/music/Q2/MT0030160582.wav,Q2,114.87648713000817,None,114.85070964447222,None,[-0.2914285714285714],[0.17714285714285713],[1],[0],[0],[8.782794638013002],0.005398717476055026,None,123.64477930701105,None,,,17_01,001,2023_Apr_18_1757,musicemotionlatency,2021.2.3,None,
10,0,10,0,,,../fMRI_stim/music/Q3/MT0011398970.wav,Q3,126.22463706799317,None,126.19334323068615,None,[-0.04380952380952381],[-0.23333333333333334],[1],[0],[0],[9.8669967870228],0.0004915557219646871,None,136.0791474370053,None,,,17_01,001,2023_Apr_18_1757,musicemotionlatency,2021.2.3,None,
11,0,11,0,,,../fMRI_stim/music/Q1/MT0029065626.wav,Q1,138.62569350696867,None,138.60672661128922,None,[0.23904761904761904],[0.30666666666666664],[1],[0],[0],[4.571020571980625],0.008413684263359755,None,143.18604179599788,None,,,17_01,001,2023_Apr_18_1757,musicemotionlatency,2021.2.3,None,
12,0,12,0,,,../fMRI_stim/music/Q1/MT0013101577.wav,Q2,145.77002536697546,None,145.75713896285743,None,[-0.049523809523809526],[0.29333333333333333],[1],[0],[0],[8.045113773958292],0.013748426921665668,None,153.80622136499733,None,,,17_01,001,2023_Apr_18_1757,musicemotionlatency,2021.2.3,None,
13,0,13,0,,,../fMRI_stim/music/Q4/MT0013955066.wav,Q4,156.40735032298835,None,156.386496432079,168.40304722997826,[0.2342857142857143],[-0.022857142857142857],[1],[0],[0],[12.262122326996177],0.010346926108468324,None,168.678391680005,None,,,17_01,001,2023_Apr_18_1757,musicemotionlatency,2021.2.3,None,
14,0,14,0,,,../fMRI_stim/music/Q4/MT0030494794.wav,Q4,171.25363764498616,None,171.24105948588112,None,[0.10857142857142857],[-0.024761904761904763],[1],[0],[0],[10.120793937006965],0.014683237881399691,None,181.36642614897573,None,,,17_01,001,2023_Apr_18_1757,musicemotionlatency,2021.2.3,None,
15,0,15,0,,,../fMRI_stim/music/Q1/MT0009213083.wav,Q1,183.94915598497028,None,183.93880749006058,None,[0.2866666666666667],[0.17047619047619048],[1],[0],[0],[5.112439393997192],0.015513128018938005,None,189.05219880497316,None,,,17_01,001,2023_Apr_18_1757,musicemotionlatency,2021.2.3,None,
16,0,16,0,,,../fMRI_stim/music/Q2/MT0012008752.wav,Q1,191.63602291198913,None,191.61016857688082,None,[0.02857142857142857],[0.28095238095238095],[1],[0],[0],[6.75124475301709],0.00017458293586969376,None,198.3841729919659,None,,,17_01,001,2023_Apr_18_1757,musicemotionlatency,2021.2.3,None,
17,0,17,0,,,../fMRI_stim/music/Q2/MT0012855159.wav,Q2,201.12632582901279,None,201.1126914768247,None,[-0.26571428571428574],[0.30857142857142855],[1],[0],[0],[3.0431493090000004],0.01399033481720835,None,204.16173292696476,None,,,17_01,001,2023_Apr_18_1757,musicemotionlatency,2021.2.3,None,
18,0,18,0,,,../fMRI_stim/music/Q1/MT0030487841.wav,Q1,206.84960551699623,None,206.83304172826467,None,[0.15333333333333332],[0.16380952380952382],[1],[0],[0],[5.219255548960064],0.012851822248194367,None,212.05932797596324,None,,,17_01,001,2023_Apr_18_1757,musicemotionlatency,2021.2.3,None,
19,0,19,0,,,../fMRI_stim/music/Q1/MT0013235939.wav,Q1,214.66248502000235,None,214.63634744404118,None,[0.030476190476190476],[0.21904761904761905],[1],[0],[0],[8.96438332600519],0.0010521500371396542,None,223.61714938096702,None,,,17_01,001,2023_Apr_18_1757,musicemotionlatency,2021.2.3,None,
20,0,20,0,,,../fMRI_stim/music/Q2/MT0028750297.wav,Q2,226.25228287297068,None,226.2411711476627,None,[-0.2819047619047619],[0.29523809523809524],[1],[0],[0],[4.660128292976879],0.015862102678511292,None,230.9039263559971,None,,,17_01,001,2023_Apr_18_1757,musicemotionlatency,2021.2.3,None,
21,0,21,0,,,../fMRI_stim/music/Q4/MT0014134790.wav,Q4,233.67012890597107,None,233.65604221025717,None,[0.025714285714285714],[-0.12666666666666668],[1],[0],[0],[11.126061082992237],0.015025287226308137,None,244.78792326600524,None,,,17_01,001,2023_Apr_18_1757,musicemotionlatency,2021.2.3,None,
22,0,22,0,,,../fMRI_stim/music/Q3/MT0007438571.wav,Q3,247.84556592500303,None,247.83175474159654,None,[-0.045714285714285714],[-0.04380952380952381],[1],[0],[0],[8.199470189982094],0.01346189359901473,None,256.03683943499345,None,,,17_01,001,2023_Apr_18_1757,musicemotionlatency,2021.2.3,None,
23,0,23,0,,,../fMRI_stim/music/Q3/MT0011391187.wav,Q4,258.8280421840027,None,258.80331444824117,None,[0.037142857142857144],[-0.039047619047619046],[1],[0],[0],[7.721306501014624],0.007078131253365427,None,266.5398557249573,None,,,17_01,001,2023_Apr_18_1757,musicemotionlatency,2021.2.3,None,
,,,,,,,,,,,,,,,,,,,,,,268.56083248899085,None,,,,,,,
