trials.thisRepN,trials.thisTrialN,trials.thisN,trials.thisIndex,starttext.started,starttext.stopped,music.id,Quadrants.id,russellsQuad.started,russellsQuad.stopped,music.started,music.stopped,mouse.x,mouse.y,mouse.leftButton,mouse.midButton,mouse.rightButton,mouse.time,mouse.started,mouse.stopped,fixCross.started,fixCross.stopped,goodbyetext.started,goodbyetext.stopped,participant,session,date,expName,psychopyVersion,frameRate,
0,0,0,0,49.548241933996906,None,../fMRI_stim/music/Q2/MT0012168286.wav,Q1,52.14139253599569,None,52.08423029766806,None,[0.16285714285714287],[0.21619047619047618],[1],[0],[0],[2.8830080550105777],0.013373157664318569,None,54.97025125499931,None,,,18_03,001,2023_Oct_18_1830,musicemotionlatency,2021.2.3,None,
1,0,1,0,,,../fMRI_stim/music/Q3/MT0002485672.wav,Q4,57.42267053099931,None,57.409029983001524,None,[0.09142857142857143],[-0.10857142857142857],[1],[0],[0],[8.891464088999783],0.010778671014122665,None,66.30700253898976,None,,,18_03,001,2023_Oct_18_1830,musicemotionlatency,2021.2.3,None,
2,0,2,0,,,../fMRI_stim/music/Q2/MT0007659703.wav,Q1,68.80606144599733,None,68.79303601499123,None,[0.20761904761904762],[0.2361904761904762],[1],[0],[0],[3.061987361012143],0.01207519399758894,None,71.85940865200246,None,,,18_03,001,2023_Oct_18_1830,musicemotionlatency,2021.2.3,None,
3,0,3,0,,,../fMRI_stim/music/Q1/MT0008972801.wav,Q4,74.3796589019912,None,74.35932186266679,None,[0.21714285714285714],[-0.10952380952380952],[1],[0],[0],[6.125849767995533],0.005188301671296358,None,80.49721876200056,None,,,18_03,001,2023_Oct_18_1830,musicemotionlatency,2021.2.3,None,
4,0,4,0,,,../fMRI_stim/music/Q3/MT0006919273.wav,Q4,83.03736130100151,None,83.0181082613349,None,[0.24761904761904763],[-0.09428571428571429],[1],[0],[0],[7.47274766699411],0.005775837329565547,None,90.50135506199149,None,,,18_03,001,2023_Oct_18_1830,musicemotionlatency,2021.2.3,None,
5,0,5,0,,,../fMRI_stim/music/Q1/MT0008644609.wav,Q1,93.00372617300309,None,92.98182738633089,None,[0.07523809523809524],[0.15333333333333332],[1],[0],[0],[6.858333805008442],0.003713588332175277,None,99.85314897699573,None,,,18_03,001,2023_Oct_18_1830,musicemotionlatency,2021.2.3,None,
6,0,6,0,,,../fMRI_stim/music/Q2/MT0007812490.wav,Q1,102.36835751699982,None,102.35158194099495,None,[0.2619047619047619],[0.26285714285714284],[1],[0],[0],[7.195744409997133],0.009893549999105744,None,109.55502416400122,None,,,18_03,001,2023_Oct_18_1830,musicemotionlatency,2021.2.3,None,
7,0,7,0,,,../fMRI_stim/music/Q4/MT0011938737.wav,Q4,112.07437738399312,None,112.05946751966646,None,[0.23333333333333334],[-0.08571428571428572],[1],[0],[0],[7.137366615002975],0.011306693661026657,None,119.2048166859895,None,,,18_03,001,2023_Oct_18_1830,musicemotionlatency,2021.2.3,None,
8,0,8,0,,,../fMRI_stim/music/Q1/MT0011574534.wav,Q1,121.72917279599642,None,121.71226224766384,None,[0.23809523809523808],[0.07809523809523809],[1],[0],[0],[7.6035923849995015],0.011849737667944282,None,129.32153769799334,None,,,18_03,001,2023_Oct_18_1830,musicemotionlatency,2021.2.3,None,
9,0,9,0,,,../fMRI_stim/music/Q2/MT0010310896.wav,Q1,131.90384075199836,None,131.87888298499166,None,[0.23238095238095238],[0.24952380952380954],[1],[0],[0],[4.597245416996884],0.006559800996910781,None,136.4855683969945,None,,,18_03,001,2023_Oct_18_1830,musicemotionlatency,2021.2.3,None,
10,0,10,0,,,../fMRI_stim/music/Q3/MT0006410285.wav,Q4,139.06221462399117,None,139.04909423766466,None,[0.2761904761904762],[-0.08476190476190476],[1],[0],[0],[5.444851972992183],0.013389949657721445,None,144.5015955419949,None,,,18_03,001,2023_Oct_18_1830,musicemotionlatency,2021.2.3,None,
11,0,11,0,,,../fMRI_stim/music/Q3/MT0009220462.wav,Q3,147.07122379798966,None,147.0600448076594,159.07657954499882,[-0.05142857142857143],[-0.058095238095238096],[1],[0],[0],[12.499235007009702],0.015841130662010983,None,159.56067978899227,None,,,18_03,001,2023_Oct_18_1830,musicemotionlatency,2021.2.3,None,
12,0,12,0,,,../fMRI_stim/music/Q4/MT0008167476.wav,Q4,162.10098706599092,None,162.08858495033252,None,[0.1676190476190476],[-0.07809523809523809],[1],[0],[0],[9.19909865000227],0.012865113327279687,None,171.29204533000302,None,,,18_03,001,2023_Oct_18_1830,musicemotionlatency,2021.2.3,None,
13,0,13,0,,,../fMRI_stim/music/Q1/MT0008363839.wav,Q1,173.81540500899428,None,173.79894474665733,None,[0.24952380952380954],[0.09904761904761905],[1],[0],[0],[7.1196061769878725],0.008733475668122992,None,180.93051525199553,None,,,18_03,001,2023_Oct_18_1830,musicemotionlatency,2021.2.3,None,
14,0,14,0,,,../fMRI_stim/music/Q4/MT0009289348.wav,Q4,183.56424801998946,None,183.5446109496678,None,[0.21523809523809523],[-0.06380952380952382],[1],[0],[0],[5.926306442997884],0.00856037568883039,None,189.48307316699356,None,,,18_03,001,2023_Oct_18_1830,musicemotionlatency,2021.2.3,None,
15,0,15,0,,,../fMRI_stim/music/Q1/MT0013590244.wav,Q4,192.10554723298992,None,192.09283883566775,None,[0.24],[-0.08095238095238096],[1],[0],[0],[7.490057981005521],0.013744978670729324,None,199.58833544199297,None,,,18_03,001,2023_Oct_18_1830,musicemotionlatency,2021.2.3,None,
16,0,16,0,,,../fMRI_stim/music/Q2/MT0003900455.wav,Q4,202.14514773499104,None,202.1213146749913,None,[0.25333333333333335],[-0.08476190476190476],[1],[0],[0],[7.928614030999597],0.0017017299978761002,None,210.06491452798946,None,,,18_03,001,2023_Oct_18_1830,musicemotionlatency,2021.2.3,None,
17,0,17,0,,,../fMRI_stim/music/Q1/MT0003243311.wav,Q1,212.53222386799462,None,212.50784836500245,None,[0.2361904761904762],[0.08666666666666667],[1],[0],[0],[6.078383632993791],0.001619930990273133,None,218.60153974300192,None,,,18_03,001,2023_Oct_18_1830,musicemotionlatency,2021.2.3,None,
18,0,18,0,,,../fMRI_stim/music/Q2/MT0007413949.wav,Q1,221.11693931100308,None,221.09358248198987,None,[0.22857142857142856],[0.2542857142857143],[1],[0],[0],[4.2931699639884755],0.0010659579857019708,None,225.4022992879909,None,,,18_03,001,2023_Oct_18_1830,musicemotionlatency,2021.2.3,None,
19,0,19,0,,,../fMRI_stim/music/Q4/MT0014507179.wav,Q4,227.9132349749998,None,227.89294933599012,None,[0.24],[-0.049523809523809526],[1],[0],[0],[2.964885649998905],0.004346970992628485,None,230.86996506000287,None,,,18_03,001,2023_Oct_18_1830,musicemotionlatency,2021.2.3,None,
20,0,20,0,,,../fMRI_stim/music/Q3/MT0011612883.wav,Q3,233.3324019069987,None,233.3191452666574,245.32537523999054,[-0.04476190476190476],[-0.05238095238095238],[1],[0],[0],[13.264812334004091],0.01125061463972088,None,246.58891741599655,None,,,18_03,001,2023_Oct_18_1830,musicemotionlatency,2021.2.3,None,
21,0,21,0,,,../fMRI_stim/music/Q4/MT0008686594.wav,Q4,249.0715694190003,None,249.0524144716687,None,[0.26],[-0.07904761904761905],[1],[0],[0],[5.329883462996804],0.005262380655040033,None,254.39484926199657,None,,,18_03,001,2023_Oct_18_1830,musicemotionlatency,2021.2.3,None,
22,0,22,0,,,../fMRI_stim/music/Q4/MT0002834532.wav,Q1,256.8961764190026,None,256.8774332640023,None,[0.24857142857142858],[0.10571428571428572],[1],[0],[0],[5.224420846003341],0.0059345030022086576,None,262.1120390330034,None,,,18_03,001,2023_Oct_18_1830,musicemotionlatency,2021.2.3,None,
23,0,23,0,,,../fMRI_stim/music/Q3/MT0007265208.wav,Q4,264.6519876639941,None,264.62918276633036,276.63734913399094,[0.11142857142857143],[-0.05333333333333334],[1],[0],[0],[12.356368305001524],0.003695161343785003,None,277.0011927239975,None,,,18_03,001,2023_Oct_18_1830,musicemotionlatency,2021.2.3,None,
,,,,,,,,,,,,,,,,,,,,,,279.0134278600017,None,,,,,,,
