trials.thisRepN,trials.thisTrialN,trials.thisN,trials.thisIndex,starttext.started,starttext.stopped,music.id,Quadrants.id,russellsQuad.started,russellsQuad.stopped,music.started,music.stopped,mouse.x,mouse.y,mouse.leftButton,mouse.midButton,mouse.rightButton,mouse.time,mouse.started,mouse.stopped,fixCross.started,fixCross.stopped,goodbyetext.started,goodbyetext.stopped,participant,session,date,expName,psychopyVersion,frameRate,
0,0,0,0,37.56441091699526,None,../fMRI_stim/music/Q3/MT0026905937.wav,Q4,40.206868866982404,None,40.156484722997995,None,[0.29428571428571426],[-0.2857142857142857],[1],[0],[0],[9.57546032598475],0.016286030993796885,None,49.73524482600624,None,,,19_03,001,2023_Dec_06_1707,musicemotionlatency,2021.2.3,None,
1,0,1,0,,,../fMRI_stim/music/Q4/MT0012941049.wav,Q1,52.291117182991,None,52.27904892801307,None,[0.26],[0.009523809523809525],[1],[0],[0],[8.15334791195346],0.01075515104457736,None,60.43939965998288,None,,,19_03,001,2023_Dec_06_1707,musicemotionlatency,2021.2.3,None,
2,0,2,0,,,../fMRI_stim/music/Q3/MT0010739708.wav,Q4,63.008230881998315,None,62.991596643999216,None,[0.25523809523809526],[-0.18857142857142858],[1],[0],[0],[6.314094574016053],0.01221499202074483,None,69.31258483498823,None,,,19_03,001,2023_Dec_06_1707,musicemotionlatency,2021.2.3,None,
3,0,3,0,,,../fMRI_stim/music/Q4/MT0012862507.wav,Q3,71.86808749701595,None,71.846110588999,None,[-0.19714285714285715],[-0.24857142857142858],[1],[0],[0],[9.912969542958308],0.0024691379512660205,None,81.77582090400392,None,,,19_03,001,2023_Dec_06_1707,musicemotionlatency,2021.2.3,None,
4,0,4,0,,,../fMRI_stim/music/Q1/MT0011957429.wav,Q1,84.34553722501732,None,84.3248906929628,None,[0.18761904761904763],[0.17238095238095238],[1],[0],[0],[4.654244878969621],0.004275399958714843,None,88.99472650699317,None,,,19_03,001,2023_Dec_06_1707,musicemotionlatency,2021.2.3,None,
5,0,5,0,,,../fMRI_stim/music/Q2/MT0011145388.wav,Q1,91.58067031600513,None,91.56447344030796,None,[0.1980952380952381],[0.2038095238095238],[1],[0],[0],[5.75930919701932],0.01174830028321594,None,97.35451335000107,None,,,19_03,001,2023_Dec_06_1707,musicemotionlatency,2021.2.3,None,
6,0,6,0,,,../fMRI_stim/music/Q2/MT0002960683.wav,Q2,100.0920758949942,None,100.06778021767192,None,[-0.24476190476190476],[0.3180952380952381],[1],[0],[0],[5.45455830800347],0.00590045569697395,None,105.53769763797754,None,,,19_03,001,2023_Dec_06_1707,musicemotionlatency,2021.2.3,None,
7,0,7,0,,,../fMRI_stim/music/Q4/MT0001624303.wav,Q4,108.1141107089934,None,108.0910240156382,None,[0.21523809523809523],[-0.11428571428571428],[1],[0],[0],[6.1751996200182475],0.0034879115992225707,None,114.2823464369867,None,,,19_03,001,2023_Dec_06_1707,musicemotionlatency,2021.2.3,None,
8,0,8,0,,,../fMRI_stim/music/Q1/MT0012041920.wav,Q1,116.84456247498747,None,116.82536180400056,None,[0.2571428571428571],[0.04666666666666667],[1],[0],[0],[5.850897855008952],0.0043670390150509775,None,122.6897362669697,None,,,19_03,001,2023_Dec_06_1707,musicemotionlatency,2021.2.3,None,
9,0,9,0,,,../fMRI_stim/music/Q2/MT0008530072.wav,Q2,125.28044341498753,None,125.26245785232943,None,[-0.2542857142857143],[0.32],[1],[0],[0],[2.8063171499525197],0.0055578703177161515,None,128.0830475980183,None,,,19_03,001,2023_Dec_06_1707,musicemotionlatency,2021.2.3,None,
10,0,10,0,,,../fMRI_stim/music/Q2/MT0028750297.wav,Q2,130.66686496097827,None,130.65585030931592,None,[-0.2638095238095238],[0.2876190476190476],[1],[0],[0],[5.491082680993713],0.012071102275513113,None,136.15541697997833,None,,,19_03,001,2023_Dec_06_1707,musicemotionlatency,2021.2.3,None,
11,0,11,0,,,../fMRI_stim/music/Q1/MT0029065626.wav,Q3,138.71689078997588,None,138.69308634598275,None,[-0.06095238095238095],[-0.1419047619047619],[1],[0],[0],[5.84166161401663],0.0009345609578303993,None,144.55508598499,None,,,19_03,001,2023_Dec_06_1707,musicemotionlatency,2021.2.3,None,
12,0,12,0,,,../fMRI_stim/music/Q1/MT0002262181.wav,Q4,147.1333820229629,None,147.11225888064754,None,[0.20761904761904762],[-0.12761904761904763],[1],[0],[0],[5.269104700011667],0.003194013668689877,None,152.4187705600052,None,,,19_03,001,2023_Dec_06_1707,musicemotionlatency,2021.2.3,None,
13,0,13,0,,,../fMRI_stim/music/Q3/MT0007610380.wav,Q4,155.02470925298985,None,155.01093453997748,None,[0.21333333333333335],[-0.10380952380952381],[1],[0],[0],[4.599212148983497],0.011700838920660317,None,159.62116937397514,None,,,19_03,001,2023_Dec_06_1707,musicemotionlatency,2021.2.3,None,
14,0,14,0,,,../fMRI_stim/music/Q1/MT0011786799.wav,Q1,162.1861339539755,None,162.1747235426602,None,[0.19142857142857142],[0.10666666666666667],[1],[0],[0],[7.070051805989351],0.014619812660384923,None,169.24800547299674,None,,,19_03,001,2023_Dec_06_1707,musicemotionlatency,2021.2.3,None,
15,0,15,0,,,../fMRI_stim/music/Q1/MT0009845276.wav,Q4,171.78725877398392,None,171.770132992308,None,[0.24],[-0.19523809523809524],[1],[0],[0],[4.547819523024373],0.006994608324021101,None,176.32796125096502,None,,,19_03,001,2023_Dec_06_1707,musicemotionlatency,2021.2.3,None,
16,0,16,0,,,../fMRI_stim/music/Q2/MT0010490157.wav,Q2,178.84787254896946,None,178.8261774419807,None,[-0.26],[0.3342857142857143],[1],[0],[0],[2.9601790030137636],0.0027894609957002103,None,181.80132878996665,None,,,19_03,001,2023_Dec_06_1707,musicemotionlatency,2021.2.3,None,
17,0,17,0,,,../fMRI_stim/music/Q4/MT0012151268.wav,Q4,184.37824725097744,None,184.3560908986411,None,[0.2276190476190476],[-0.17809523809523808],[1],[0],[0],[5.477020021004137],0.0029990955954417586,None,189.84931891597807,None,,,19_03,001,2023_Dec_06_1707,musicemotionlatency,2021.2.3,None,
18,0,18,0,,,../fMRI_stim/music/Q3/MT0001871732.wav,Q1,192.38900076801656,None,192.3815341903324,None,[0.1980952380952381],[0.24476190476190476],[1],[0],[0],[4.0840559439966455],0.016430905321612954,None,196.46711576299276,None,,,19_03,001,2023_Dec_06_1707,musicemotionlatency,2021.2.3,None,
19,0,19,0,,,../fMRI_stim/music/Q4/MT0030494794.wav,Q4,199.07153328997083,None,199.051943712018,None,[0.18666666666666668],[-0.19523809523809524],[1],[0],[0],[6.505981441005133],0.005233033967670053,None,205.57328059896827,None,,,19_03,001,2023_Dec_06_1707,musicemotionlatency,2021.2.3,None,
20,0,20,0,,,../fMRI_stim/music/Q3/MT0009437817.wav,Q4,208.2120841089636,None,208.1880839996428,None,[0.22857142857142856],[-0.2],[1],[0],[0],[4.44656405801652],0.0018088066135533154,None,212.65305133600486,None,,,19_03,001,2023_Dec_06_1707,musicemotionlatency,2021.2.3,None,
21,0,21,0,,,../fMRI_stim/music/Q2/MT0011348776.wav,Q4,215.54021040000953,None,215.53044371932825,None,[0.20952380952380953],[-0.26],[1],[0],[0],[5.246116119029466],0.015396603383123875,None,220.7812055660179,None,,,19_03,001,2023_Dec_06_1707,musicemotionlatency,2021.2.3,None,
22,0,22,0,,,../fMRI_stim/music/Q4/MT0010818060.wav,Q4,223.56021993397735,None,223.46941214298133,None,[0.20666666666666667],[-0.19714285714285715],[1],[0],[0],[5.644027758971788],0.008703344967216253,None,229.12394178996328,None,,,19_03,001,2023_Dec_06_1707,musicemotionlatency,2021.2.3,None,
23,0,23,0,,,../fMRI_stim/music/Q3/MT0010375510.wav,Q4,231.76037599198753,None,231.74866300935005,None,[0.22952380952380952],[-0.04666666666666667],[1],[0],[0],[4.399836219963618],0.013007779431063682,None,236.15627766796388,None,,,19_03,001,2023_Dec_06_1707,musicemotionlatency,2021.2.3,None,
,,,,,,,,,,,,,,,,,,,,,,238.16460260300664,None,,,,,,,
